Time (ms), Time (us), accX, accY, accZ, gyroX, gyroY, gyroZ, tempC, Packet Error
0, 0, 0.0, 0.0, 0.0, 0.0, 0.0, 0.0, 0.0, 0
0, 0, 0.0, 0.0, 0.0, 0.0, 0.0, 0.0, 0.0, 0
0, 0, 0.0, 0.0, 0.0, 0.0, 0.0, 0.0, 0.0, 0
0, 0, 0.0, 0.0, 0.0, 0.0, 0.0, 0.0, 0.0, 0
0, 0, 0.0, 0.0, 0.0, 0.0, 0.0, 0.0, 0.0, 0
0, 0, 0.0, 0.0, 0.0, 0.0, 0.0, 0.0, 0.0, 0
0, 0, 0.0, 0.0, 0.0, 0.0, 0.0, 0.0, 0.0, 0
47375, 47375613, -1.23, -0.01, -0.01, 0.03, 0.03, 0.03, 30.6, 0
47531, 47531615, -1.26, -0.01, -0.01, 0.01, 0.01, 0.01, 30.64, 0
47681, 47681615, -1.2, -0.01, -0.01, 0.02, 0.02, 0.02, 30.55, 0
47840, 47840618, -1.25, -0.01, -0.01, 0.0, 0.0, 0.0, 30.55, 0
47991, 47991616, -1.21, -0.01, -0.01, -0.05, -0.05, -0.05, 30.64, 0
0, 0, 0.0, 0.0, 0.0, 0.0, 0.0, 0.0, 0.0, 0
48463, 48463616, -1.23, -0.01, -0.01, 0.02, 0.02, 0.02, 30.69, 0
0, 0, 0.0, 0.0, 0.0, 0.0, 0.0, 0.0, 0.0, 0
0, 0, 0.0, 0.0, 0.0, 0.0, 0.0, 0.0, 0.0, 0
0, 0, 0.0, 0.0, 0.0, 0.0, 0.0, 0.0, 0.0, 0
0, 0, 0.0, 0.0, 0.0, 0.0, 0.0, 0.0, 0.0, 0
0, 0, 0.0, 0.0, 0.0, 0.0, 0.0, 0.0, 0.0, 0
0, 0, 0.0, 0.0, 0.0, 0.0, 0.0, 0.0, 0.0, 0
0, 0, 0.0, 0.0, 0.0, 0.0, 0.0, 0.0, 0.0, 0
0, 0, 0.0, 0.0, 0.0, 0.0, 0.0, 0.0, 0.0, 0
0, 0, 0.0, 0.0, 0.0, 0.0, 0.0, 0.0, 0.0, 0
0, 0, 0.0, 0.0, 0.0, 0.0, 0.0, 0.0, 0.0, 0
0, 0, 0.0, 0.0, 0.0, 0.0, 0.0, 0.0, 0.0, 0
0, 0, 0.0, 0.0, 0.0, 0.0, 0.0, 0.0, 0.0, 0
0, 0, 0.0, 0.0, 0.0, 0.0, 0.0, 0.0, 0.0, 0
0, 0, 0.0, 0.0, 0.0, 0.0, 0.0, 0.0, 0.0, 0
0, 0, 0.0, 0.0, 0.0, 0.0, 0.0, 0.0, 0.0, 0
0, 0, 0.0, 0.0, 0.0, 0.0, 0.0, 0.0, 0.0, 0
0, 0, 0.0, 0.0, 0.0, 0.0, 0.0, 0.0, 0.0, 0
0, 0, 0.0, 0.0, 0.0, 0.0, 0.0, 0.0, 0.0, 0
0, 0, 0.0, 0.0, 0.0, 0.0, 0.0, 0.0, 0.0, 0
0, 0, 0.0, 0.0, 0.0, 0.0, 0.0, 0.0, 0.0, 0
0, 0, 0.0, 0.0, 0.0, 0.0, 0.0, 0.0, 0.0, 0
0, 0, 0.0, 0.0, 0.0, 0.0, 0.0, 0.0, 0.0, 0
0, 0, 0.0, 0.0, 0.0, 0.0, 0.0, 0.0, 0.0, 0
0, 0, 0.0, 0.0, 0.0, 0.0, 0.0, 0.0, 0.0, 0
0, 0, 0.0, 0.0, 0.0, 0.0, 0.0, 0.0, 0.0, 0
0, 0, 0.0, 0.0, 0.0, 0.0, 0.0, 0.0, 0.0, 0
0, 0, 0.0, 0.0, 0.0, 0.0, 0.0, 0.0, 0.0, 0
0, 0, 0.0, 0.0, 0.0, 0.0, 0.0, 0.0, 0.0, 0
0, 0, 0.0, 0.0, 0.0, 0.0, 0.0, 0.0, 0.0, 0
0, 0, 0.0, 0.0, 0.0, 0.0, 0.0, 0.0, 0.0, 0
0, 0, 0.0, 0.0, 0.0, 0.0, 0.0, 0.0, 0.0, 0
0, 0, 0.0, 0.0, 0.0, 0.0, 0.0, 0.0, 0.0, 0
0, 0, 0.0, 0.0, 0.0, 0.0, 0.0, 0.0, 0.0, 0
0, 0, 0.0, 0.0, 0.0, 0.0, 0.0, 0.0, 0.0, 0
0, 0, 0.0, 0.0, 0.0, 0.0, 0.0, 0.0, 0.0, 0
0, 0, 0.0, 0.0, 0.0, 0.0, 0.0, 0.0, 0.0, 0
0, 0, 0.0, 0.0, 0.0, 0.0, 0.0, 0.0, 0.0, 0
0, 0, 0.0, 0.0, 0.0, 0.0, 0.0, 0.0, 0.0, 0
0, 0, 0.0, 0.0, 0.0, 0.0, 0.0, 0.0, 0.0, 0
0, 0, 0.0, 0.0, 0.0, 0.0, 0.0, 0.0, 0.0, 0
0, 0, 0.0, 0.0, 0.0, 0.0, 0.0, 0.0, 0.0, 0
0, 0, 0.0, 0.0, 0.0, 0.0, 0.0, 0.0, 0.0, 0
0, 0, 0.0, 0.0, 0.0, 0.0, 0.0, 0.0, 0.0, 0
0, 0, 0.0, 0.0, 0.0, 0.0, 0.0, 0.0, 0.0, 0
0, 0, 0.0, 0.0, 0.0, 0.0, 0.0, 0.0, 0.0, 0
0, 0, 0.0, 0.0, 0.0, 0.0, 0.0, 0.0, 0.0, 0
0, 0, 0.0, 0.0, 0.0, 0.0, 0.0, 0.0, 0.0, 0
0, 0, 0.0, 0.0, 0.0, 0.0, 0.0, 0.0, 0.0, 0
0, 0, 0.0, 0.0, 0.0, 0.0, 0.0, 0.0, 0.0, 0
0, 0, 0.0, 0.0, 0.0, 0.0, 0.0, 0.0, 0.0, 0
0, 0, 0.0, 0.0, 0.0, 0.0, 0.0, 0.0, 0.0, 0
0, 0, 0.0, 0.0, 0.0, 0.0, 0.0, 0.0, 0.0, 0
0, 0, 0.0, 0.0, 0.0, 0.0, 0.0, 0.0, 0.0, 0
0, 0, 0.0, 0.0, 0.0, 0.0, 0.0, 0.0, 0.0, 0
0, 0, 0.0, 0.0, 0.0, 0.0, 0.0, 0.0, 0.0, 0
0, 0, 0.0, 0.0, 0.0, 0.0, 0.0, 0.0, 0.0, 0
0, 0, 0.0, 0.0, 0.0, 0.0, 0.0, 0.0, 0.0, 0
0, 0, 0.0, 0.0, 0.0, 0.0, 0.0, 0.0, 0.0, 0
0, 0, 0.0, 0.0, 0.0, 0.0, 0.0, 0.0, 0.0, 0
0, 0, 0.0, 0.0, 0.0, 0.0, 0.0, 0.0, 0.0, 0
0, 0, 0.0, 0.0, 0.0, 0.0, 0.0, 0.0, 0.0, 0
0, 0, 0.0, 0.0, 0.0, 0.0, 0.0, 0.0, 0.0, 0
0, 0, 0.0, 0.0, 0.0, 0.0, 0.0, 0.0, 0.0, 0
0, 0, 0.0, 0.0, 0.0, 0.0, 0.0, 0.0, 0.0, 0
0, 0, 0.0, 0.0, 0.0, 0.0, 0.0, 0.0, 0.0, 0
0, 0, 0.0, 0.0, 0.0, 0.0, 0.0, 0.0, 0.0, 0
0, 0, 0.0, 0.0, 0.0, 0.0, 0.0, 0.0, 0.0, 0
0, 0, 0.0, 0.0, 0.0, 0.0, 0.0, 0.0, 0.0, 0
0, 0, 0.0, 0.0, 0.0, 0.0, 0.0, 0.0, 0.0, 0
0, 0, 0.0, 0.0, 0.0, 0.0, 0.0, 0.0, 0.0, 0
0, 0, 0.0, 0.0, 0.0, 0.0, 0.0, 0.0, 0.0, 0
0, 0, 0.0, 0.0, 0.0, 0.0, 0.0, 0.0, 0.0, 0
0, 0, 0.0, 0.0, 0.0, 0.0, 0.0, 0.0, 0.0, 0
0, 0, 0.0, 0.0, 0.0, 0.0, 0.0, 0.0, 0.0, 0
0, 0, 0.0, 0.0, 0.0, 0.0, 0.0, 0.0, 0.0, 0
0, 0, 0.0, 0.0, 0.0, 0.0, 0.0, 0.0, 0.0, 0
0, 0, 0.0, 0.0, 0.0, 0.0, 0.0, 0.0, 0.0, 0
0, 0, 0.0, 0.0, 0.0, 0.0, 0.0, 0.0, 0.0, 0
0, 0, 0.0, 0.0, 0.0, 0.0, 0.0, 0.0, 0.0, 0
0, 0, 0.0, 0.0, 0.0, 0.0, 0.0, 0.0, 0.0, 0
0, 0, 0.0, 0.0, 0.0, 0.0, 0.0, 0.0, 0.0, 0
0, 0, 0.0, 0.0, 0.0, 0.0, 0.0, 0.0, 0.0, 0
0, 0, 0.0, 0.0, 0.0, 0.0, 0.0, 0.0, 0.0, 0
0, 0, 0.0, 0.0, 0.0, 0.0, 0.0, 0.0, 0.0, 0
0, 0, 0.0, 0.0, 0.0, 0.0, 0.0, 0.0, 0.0, 0
0, 0, 0.0, 0.0, 0.0, 0.0, 0.0, 0.0, 0.0, 0
0, 0, 0.0, 0.0, 0.0, 0.0, 0.0, 0.0, 0.0, 0
0, 0, 0.0, 0.0, 0.0, 0.0, 0.0, 0.0, 0.0, 0
0, 0, 0.0, 0.0, 0.0, 0.0, 0.0, 0.0, 0.0, 0
0, 0, 0.0, 0.0, 0.0, 0.0, 0.0, 0.0, 0.0, 0
0, 0, 0.0, 0.0, 0.0, 0.0, 0.0, 0.0, 0.0, 0
0, 0, 0.0, 0.0, 0.0, 0.0, 0.0, 0.0, 0.0, 0
0, 0, 0.0, 0.0, 0.0, 0.0, 0.0, 0.0, 0.0, 0
0, 0, 0.0, 0.0, 0.0, 0.0, 0.0, 0.0, 0.0, 0
0, 0, 0.0, 0.0, 0.0, 0.0, 0.0, 0.0, 0.0, 0
0, 0, 0.0, 0.0, 0.0, 0.0, 0.0, 0.0, 0.0, 0
0, 0, 0.0, 0.0, 0.0, 0.0, 0.0, 0.0, 0.0, 0
0, 0, 0.0, 0.0, 0.0, 0.0, 0.0, 0.0, 0.0, 0
0, 0, 0.0, 0.0, 0.0, 0.0, 0.0, 0.0, 0.0, 0
0, 0, 0.0, 0.0, 0.0, 0.0, 0.0, 0.0, 0.0, 0
70743, 70743615, -2.99, -0.03, -0.03, 0.0, 0.0, 0.0, 30.97, 0
70743, 70743615, -2.99, -0.03, -0.03, 0.0, 0.0, 0.0, 30.97, 0
70743, 70743615, -2.99, -0.03, -0.03, 0.0, 0.0, 0.0, 30.97, 0
70743, 70743615, -2.99, -0.03, -0.03, 0.0, 0.0, 0.0, 30.97, 0
70743, 70743615, -2.99, -0.03, -0.03, 0.0, 0.0, 0.0, 30.97, 0
70743, 70743615, -2.99, -0.03, -0.03, 0.0, 0.0, 0.0, 30.97, 0
70743, 70743615, -2.99, -0.03, -0.03, 0.0, 0.0, 0.0, 30.97, 0
70743, 70743615, -2.99, -0.03, -0.03, 0.0, 0.0, 0.0, 30.97, 0
70743, 70743615, -2.99, -0.03, -0.03, 0.0, 0.0, 0.0, 30.97, 0
70743, 70743615, -2.99, -0.03, -0.03, 0.0, 0.0, 0.0, 30.97, 0
70743, 70743615, -2.99, -0.03, -0.03, 0.0, 0.0, 0.0, 30.97, 0
70743, 70743615, -2.99, -0.03, -0.03, 0.0, 0.0, 0.0, 30.97, 0
70743, 70743615, -2.99, -0.03, -0.03, 0.0, 0.0, 0.0, 30.97, 0
70743, 70743615, -2.99, -0.03, -0.03, 0.0, 0.0, 0.0, 30.97, 0
70743, 70743615, -2.99, -0.03, -0.03, 0.0, 0.0, 0.0, 30.97, 0
70743, 70743615, -2.99, -0.03, -0.03, 0.0, 0.0, 0.0, 30.97, 0
70743, 70743615, -2.99, -0.03, -0.03, 0.0, 0.0, 0.0, 30.97, 0
70743, 70743615, -2.99, -0.03, -0.03, 0.0, 0.0, 0.0, 30.97, 0
70743, 70743615, -2.99, -0.03, -0.03, 0.0, 0.0, 0.0, 30.97, 0
70743, 70743615, -2.99, -0.03, -0.03, 0.0, 0.0, 0.0, 30.97, 0
70743, 70743615, -2.99, -0.03, -0.03, 0.0, 0.0, 0.0, 30.97, 0
70743, 70743615, -2.99, -0.03, -0.03, 0.0, 0.0, 0.0, 30.97, 0
70743, 70743615, -2.99, -0.03, -0.03, 0.0, 0.0, 0.0, 30.97, 0
70743, 70743615, -2.99, -0.03, -0.03, 0.0, 0.0, 0.0, 30.97, 0
70743, 70743615, -2.99, -0.03, -0.03, 0.0, 0.0, 0.0, 30.97, 0
70743, 70743615, -2.99, -0.03, -0.03, 0.0, 0.0, 0.0, 30.97, 0
70743, 70743615, -2.99, -0.03, -0.03, 0.0, 0.0, 0.0, 30.97, 0
70743, 70743615, -2.99, -0.03, -0.03, 0.0, 0.0, 0.0, 30.97, 0
70743, 70743615, -2.99, -0.03, -0.03, 0.0, 0.0, 0.0, 30.97, 0
70743, 70743615, -2.99, -0.03, -0.03, 0.0, 0.0, 0.0, 30.97, 0
70743, 70743615, -2.99, -0.03, -0.03, 0.0, 0.0, 0.0, 30.97, 0
70743, 70743615, -2.99, -0.03, -0.03, 0.0, 0.0, 0.0, 30.97, 0
70743, 70743615, -2.99, -0.03, -0.03, 0.0, 0.0, 0.0, 30.97, 0
70743, 70743615, -2.99, -0.03, -0.03, 0.0, 0.0, 0.0, 30.97, 0
70743, 70743615, -2.99, -0.03, -0.03, 0.0, 0.0, 0.0, 30.97, 0
78412, 78412613, -1.07, -0.01, -0.01, 0.03, 0.03, 0.03, 30.93, 0
78412, 78412613, -1.07, -0.01, -0.01, 0.03, 0.03, 0.03, 30.93, 0
78412, 78412613, -1.07, -0.01, -0.01, 0.03, 0.03, 0.03, 30.93, 0
78412, 78412613, -107, -12667, -2147483472, -6, -97, 1610612741, 19477, 1
78412, 78412613, -1.07, -0.01, -0.01, 0.03, 0.03, 0.03, 30.93, 0
78412, 78412613, -1.07, -0.01, -0.01, 0.03, 0.03, 0.03, 30.93, 0
78412, 78412613, -1.07, -0.01, -0.01, 0.03, 0.03, 0.03, 30.93, 0
78412, 78412613, -1.07, -0.01, -0.01, 0.03, 0.03, 0.03, 30.93, 0
78412, 78412613, -1.07, -0.01, -0.01, 0.03, 0.03, 0.03, 30.93, 0
78412, 78412613, -1.07, -0.01, -0.01, 0.03, 0.03, 0.03, 30.93, 0
78412, 78412613, -1.07, -0.01, -0.01, 0.03, 0.03, 0.03, 30.93, 0
78412, 78412613, -1.07, -0.01, -0.01, 0.03, 0.03, 0.03, 30.93, 0
78412, 78412613, -1.07, -0.01, -0.01, 0.03, 0.03, 0.03, 30.93, 0
78412, 78412613, -1.07, -0.01, -0.01, 0.03, 0.03, 0.03, 30.93, 0
78412, 78412613, -1.07, -0.01, -0.01, 0.03, 0.03, 0.03, 30.93, 0
78412, 78412613, -1.07, -0.01, -0.01, 0.03, 0.03, 0.03, 30.93, 0
78412, 78412613, -1.07, -0.01, -0.01, 0.03, 0.03, 0.03, 30.93, 0
78412, 78412613, -1.07, -0.01, -0.01, 0.03, 0.03, 0.03, 30.93, 0
78412, 78412613, -1.07, -0.01, -0.01, 0.03, 0.03, 0.03, 30.93, 0
78412, 78412613, -1.07, -0.01, -0.01, 0.03, 0.03, 0.03, 30.93, 0
78412, 78412613, -1.07, -0.01, -0.01, 0.03, 0.03, 0.03, 30.93, 0
78412, 78412613, -1.07, -0.01, -0.01, 0.03, 0.03, 0.03, 30.93, 0
78412, 78412613, -1.07, -0.01, -0.01, 0.03, 0.03, 0.03, 30.93, 0
78412, 78412613, -1.07, -0.01, -0.01, 0.03, 0.03, 0.03, 30.93, 0
78412, 78412613, -1.07, -0.01, -0.01, 0.03, 0.03, 0.03, 30.93, 0
78412, 78412613, -1.07, -0.01, -0.01, 0.03, 0.03, 0.03, 30.93, 0
78412, 78412613, -1.07, -0.01, -0.01, 0.03, 0.03, 0.03, 30.93, 0
78412, 78412613, -1.07, -0.01, -0.01, 0.03, 0.03, 0.03, 30.93, 0
78412, 78412613, -1.07, -0.01, -0.01, 0.03, 0.03, 0.03, 30.93, 0
78412, 78412613, -1.07, -0.01, -0.01, 0.03, 0.03, 0.03, 30.93, 0
78412, 78412613, -1.07, -0.01, -0.01, 0.03, 0.03, 0.03, 30.93, 0
78412, 78412613, -1.07, -0.01, -0.01, 0.03, 0.03, 0.03, 30.93, 0
78412, 78412613, -1.07, -0.01, -0.01, 0.03, 0.03, 0.03, 30.93, 0
78412, 78412613, -1.07, -0.01, -0.01, 0.03, 0.03, 0.03, 30.93, 0
78412, 78412613, -1.07, -0.01, -0.01, 0.03, 0.03, 0.03, 30.93, 0
85979, 85979619, -1.1, -0.01, -0.01, 0.03, 0.03, 0.03, 31.02, 0
85979, 85979619, -1.1, -0.01, -0.01, 0.03, 0.03, 0.03, 31.02, 0
85979, 85979619, -1.1, -0.01, -0.01, 0.03, 0.03, 0.03, 31.02, 0
50417627, 85979621, -2158, -12657, -2147483479, -6, -98, -1073741819, 3102, 1
85979, 85979619, -1.1, -0.01, -0.01, 0.03, 0.03, 0.03, 31.02, 0
85979, 85979619, -1.1, -0.01, -0.01, 0.03, 0.03, 0.03, 31.02, 0
85979, 85979619, -1.1, -0.01, -0.01, 0.03, 0.03, 0.03, 31.02, 0
85979, 85979619, -1.1, -0.01, -0.01, 0.03, 0.03, 0.03, 31.02, 0
85979, 85979619, -1.1, -0.01, -0.01, 0.03, 0.03, 0.03, 31.02, 0
85979, 85979619, -1.1, -0.01, -0.01, 0.03, 0.03, 0.03, 31.02, 0
85979, 85979619, -1.1, -0.01, -0.01, 0.03, 0.03, 0.03, 31.02, 0
85979, 85979619, -1.1, -0.01, -0.01, 0.03, 0.03, 0.03, 31.02, 0
85979, 85979619, -1.1, -0.01, -0.01, 0.03, 0.03, 0.03, 31.02, 0
85979, 85979619, -1.1, -0.01, -0.01, 0.03, 0.03, 0.03, 31.02, 0
85979, 85979619, -1.1, -0.01, -0.01, 0.03, 0.03, 0.03, 31.02, 0
85979, 85979619, -1.1, -0.01, -0.01, 0.03, 0.03, 0.03, 31.02, 0
85979, 85979619, -1.1, -0.01, -0.01, 0.03, 0.03, 0.03, 31.02, 0
85979, 85979619, -1.1, -0.01, -0.01, 0.03, 0.03, 0.03, 31.02, 0
85979, 85979619, -1.1, -0.01, -0.01, 0.03, 0.03, 0.03, 31.02, 0
85979, 85979619, -1.1, -0.01, -0.01, 0.03, 0.03, 0.03, 31.02, 0
85979, 85979619, -1.1, -0.01, -0.01, 0.03, 0.03, 0.03, 31.02, 0
85979, 85979619, -1.1, -0.01, -0.01, 0.03, 0.03, 0.03, 31.02, 0
85979, 85979619, -1.1, -0.01, -0.01, 0.03, 0.03, 0.03, 31.02, 0
85979, 85979619, -1.1, -0.01, -0.01, 0.03, 0.03, 0.03, 31.02, 0
85979, 85979619, -1.1, -0.01, -0.01, 0.03, 0.03, 0.03, 31.02, 0
85979, 85979619, -1.1, -0.01, -0.01, 0.03, 0.03, 0.03, 31.02, 0
85979, 85979619, -1.1, -0.01, -0.01, 0.03, 0.03, 0.03, 31.02, 0
85979, 85979619, -1.1, -0.01, -0.01, 0.03, 0.03, 0.03, 31.02, 0
85979, 85979619, -1.1, -0.01, -0.01, 0.03, 0.03, 0.03, 31.02, 0
50417627, 85979619, -2158, -12657, -2147483479, -6, -98, -1073741819, 3102, 1
85979, 85979619, -1.1, -0.01, -0.01, 0.03, 0.03, 0.03, 31.02, 0
85979, 85979619, -1.1, -0.01, -0.01, 0.03, 0.03, 0.03, 31.02, 0
85979, 85979619, -1.1, -0.01, -0.01, 0.03, 0.03, 0.03, 31.02, 0
85979, 85979619, -1.1, -0.01, -0.01, 0.03, 0.03, 0.03, 31.02, 0
85979, 85979619, -1.1, -0.01, -0.01, 0.03, 0.03, 0.03, 31.02, 0
93549, 93549613, -1.12, -0.01, -0.01, 0.02, 0.02, 0.02, 31.11, 0
93549, 93549613, -1.12, -0.01, -0.01, 0.02, 0.02, 0.02, 31.11, 0
93549, 93549613, -1.12, -0.01, -0.01, 0.02, 0.02, 0.02, 31.11, 0
93549, 93549613, -1.12, -0.01, -0.01, 0.02, 0.02, 0.02, 31.11, 0
93549, 93549613, -1.12, -0.01, -0.01, 0.02, 0.02, 0.02, 31.11, 0
93549, 93549613, -1.12, -0.01, -0.01, 0.02, 0.02, 0.02, 31.11, 0
93549, 93549613, -1.12, -0.01, -0.01, 0.02, 0.02, 0.02, 31.11, 0
93549, 93549613, -1.12, -0.01, -0.01, 0.02, 0.02, 0.02, 31.11, 0
93549, 93549613, -1.12, -0.01, -0.01, 0.02, 0.02, 0.02, 31.11, 0
93549, 93549613, -1.12, -0.01, -0.01, 0.02, 0.02, 0.02, 31.11, 0
93549, 93549613, -1.12, -0.01, -0.01, 0.02, 0.02, 0.02, 31.11, 0
93549, 93549613, -1.12, -0.01, -0.01, 0.02, 0.02, 0.02, 31.11, 0
93549, 93549613, -1.12, -0.01, -0.01, 0.02, 0.02, 0.02, 31.11, 0
93549, 93549613, -1.12, -0.01, -0.01, 0.02, 0.02, 0.02, 31.11, 0
93549, 93549613, -1.12, -0.01, -0.01, 0.02, 0.02, 0.02, 31.11, 0
93549, 93549613, -1.12, -0.01, -0.01, 0.02, 0.02, 0.02, 31.11, 0
93549, 93549613, -1.12, -0.01, -0.01, 0.02, 0.02, 0.02, 31.11, 0
93549, 93549613, -1.12, -0.01, -0.01, 0.02, 0.02, 0.02, 31.11, 0
93549, 93549613, -1.12, -0.01, -0.01, 0.02, 0.02, 0.02, 31.11, 0
93549, 93549613, -1.12, -0.01, -0.01, 0.02, 0.02, 0.02, 31.11, 0
93549, 93549613, -1.12, -0.01, -0.01, 0.02, 0.02, 0.02, 31.11, 0
93549, 93549613, -1.12, -0.01, -0.01, 0.02, 0.02, 0.02, 31.11, 0
93549, 93549613, -1.12, -0.01, -0.01, 0.02, 0.02, 0.02, 31.11, 0
93549, 93549613, -1.12, -0.01, -0.01, 0.02, 0.02, 0.02, 31.11, 0
93549, 93549613, -1.12, -0.01, -0.01, 0.02, 0.02, 0.02, 31.11, 0
93549, 93549613, -1.12, -0.01, -0.01, 0.02, 0.02, 0.02, 31.11, 0
93549, 93549613, -1.12, -0.01, -0.01, 0.02, 0.02, 0.02, 31.11, 0
93549, 93549613, -1.12, -0.01, -0.01, 0.02, 0.02, 0.02, 31.11, 0
93549, 93549613, -1.12, -0.01, -0.01, 0.02, 0.02, 0.02, 31.11, 0
93549, 93549613, -1.12, -0.01, -0.01, 0.02, 0.02, 0.02, 31.11, 0
93549, 93549613, -1.12, -0.01, -0.01, 0.02, 0.02, 0.02, 31.11, 0
93549, 93549613, -1.12, -0.01, -0.01, 0.02, 0.02, 0.02, 31.11, 0
93549, 93549613, -1.12, -0.01, -0.01, 0.02, 0.02, 0.02, 31.11, 0
93549, 93549613, -1.12, -0.01, -0.01, 0.02, 0.02, 0.02, 31.11, 0
93549, 93549613, -1.12, -0.01, -0.01, 0.02, 0.02, 0.02, 31.11, 0
93549, 93549613, -1.12, -0.01, -0.01, 0.02, 0.02, 0.02, 31.11, 0
93549, 93549613, -1.12, -0.01, -0.01, 0.02, 0.02, 0.02, 31.11, 0
93549, 93549613, -1.12, -0.01, -0.01, 0.02, 0.02, 0.02, 31.11, 0
93549, 93549613, -1.12, -0.01, -0.01, 0.02, 0.02, 0.02, 31.11, 0
93549, 93549613, -1.12, -0.01, -0.01, 0.02, 0.02, 0.02, 31.11, 0
102218, 102218614, -1.17, -0.01, -0.01, 0.03, 0.03, 0.03, 31.16, 0
102218, 102218614, -1.17, -0.01, -0.01, 0.03, 0.03, 0.03, 31.16, 0
102218, 102218614, -1.17, -0.01, -0.01, 0.03, 0.03, 0.03, 31.16, 0
102218, 102218614, -1.17, -0.01, -0.01, 0.03, 0.03, 0.03, 31.16, 0
102218, 102218614, -1.17, -0.01, -0.01, 0.03, 0.03, 0.03, 31.16, 0
102218, 102218614, -1.17, -0.01, -0.01, 0.03, 0.03, 0.03, 31.16, 0
102218, 102218614, -1.17, -0.01, -0.01, 0.03, 0.03, 0.03, 31.16, 0
102218, 102218614, -1.17, -0.01, -0.01, 0.03, 0.03, 0.03, 31.16, 0
102218, 102218614, -1.17, -0.01, -0.01, 0.03, 0.03, 0.03, 31.16, 0
102218, 102218614, -1.17, -0.01, -0.01, 0.03, 0.03, 0.03, 31.16, 0
102218, 102218614, -1.17, -0.01, -0.01, 0.03, 0.03, 0.03, 31.16, 0
102218, 102218614, -1.17, -0.01, -0.01, 0.03, 0.03, 0.03, 31.16, 0
102218, 102218614, -1.17, -0.01, -0.01, 0.03, 0.03, 0.03, 31.16, 0
102218, 102218614, -1.17, -0.01, -0.01, 0.03, 0.03, 0.03, 31.16, 0
102218, 102218614, -1.17, -0.01, -0.01, 0.03, 0.03, 0.03, 31.16, 0
102218, 102218614, -1.17, -0.01, -0.01, 0.03, 0.03, 0.03, 31.16, 0
102218, 102218614, -1.17, -0.01, -0.01, 0.03, 0.03, 0.03, 31.16, 0
102218, 102218614, -1.17, -0.01, -0.01, 0.03, 0.03, 0.03, 31.16, 0
102218, 102218614, -1.17, -0.01, -0.01, 0.03, 0.03, 0.03, 31.16, 0
102218, 102218614, -1.17, -0.01, -0.01, 0.03, 0.03, 0.03, 31.16, 0
102218, 102218614, -1.17, -0.01, -0.01, 0.03, 0.03, 0.03, 31.16, 0
102218, 102218614, -1.17, -0.01, -0.01, 0.03, 0.03, 0.03, 31.16, 0
102218, 102218614, -1.17, -0.01, -0.01, 0.03, 0.03, 0.03, 31.16, 0
102218, 102218614, -1.17, -0.01, -0.01, 0.03, 0.03, 0.03, 31.16, 0
102218, 102218614, -1.17, -0.01, -0.01, 0.03, 0.03, 0.03, 31.16, 0
102218, 102218614, -1.17, -0.01, -0.01, 0.03, 0.03, 0.03, 31.16, 0
102218, 102218614, -1.17, -0.01, -0.01, 0.03, 0.03, 0.03, 31.16, 0
102218, 102218614, -1.17, -0.01, -0.01, 0.03, 0.03, 0.03, 31.16, 0
102218, 102218614, -1.17, -0.01, -0.01, 0.03, 0.03, 0.03, 31.16, 0
102218, 102218614, -1.17, -0.01, -0.01, 0.03, 0.03, 0.03, 31.16, 0
102218, 102218614, -1.17, -0.01, -0.01, 0.03, 0.03, 0.03, 31.16, 0
102218, 102218614, -1.17, -0.01, -0.01, 0.03, 0.03, 0.03, 31.16, 0
102218, 102218614, -1.17, -0.01, -0.01, 0.03, 0.03, 0.03, 31.16, 0
102218, 102218614, -1.17, -0.01, -0.01, 0.03, 0.03, 0.03, 31.16, 0
102218, 102218614, -1.17, -0.01, -0.01, 0.03, 0.03, 0.03, 31.16, 0
109788, 109788618, -1.07, -0.01, -0.01, 0.0, 0.0, 0.0, 31.25, 0
109788, 109788618, -1.07, -0.01, -0.01, 0.0, 0.0, 0.0, 31.25, 0
109788, 109788618, -1.07, -0.01, -0.01, 0.0, 0.0, 0.0, 31.25, 0
109788, 109788618, -1.07, -0.01, -0.01, 0.0, 0.0, 0.0, 31.25, 0
109788, 109788618, -1.07, -0.01, -0.01, 0.0, 0.0, 0.0, 31.25, 0
109788, 109788618, -1.07, -0.01, -0.01, 0.0, 0.0, 0.0, 31.25, 0
109788, 109788618, -1.07, -0.01, -0.01, 0.0, 0.0, 0.0, 31.25, 0
109788, 109788618, -1.07, -0.01, -0.01, 0.0, 0.0, 0.0, 31.25, 0
109788, 109788618, -1.07, -0.01, -0.01, 0.0, 0.0, 0.0, 31.25, 0
109788, 109788618, -1.07, -0.01, -0.01, 0.0, 0.0, 0.0, 31.25, 0
109788, 109788618, -1.07, -0.01, -0.01, 0.0, 0.0, 0.0, 31.25, 0
109788, 109788618, -1.07, -0.01, -0.01, 0.0, 0.0, 0.0, 31.25, 0
109788, 109788618, -1.07, -0.01, -0.01, 0.0, 0.0, 0.0, 31.25, 0
109788, 109788618, -1.07, -0.01, -0.01, 0.0, 0.0, 0.0, 31.25, 0
109788, 109788618, -1.07, -0.01, -0.01, 0.0, 0.0, 0.0, 31.25, 0
109788, 109788618, -1.07, -0.01, -0.01, 0.0, 0.0, 0.0, 31.25, 0
109788, 109788618, -1.07, -0.01, -0.01, 0.0, 0.0, 0.0, 31.25, 0
109788, 109788618, -1.07, -0.01, -0.01, 0.0, 0.0, 0.0, 31.25, 0
109788, 109788618, -1.07, -0.01, -0.01, 0.0, 0.0, 0.0, 31.25, 0
109788, 109788618, -1.07, -0.01, -0.01, 0.0, 0.0, 0.0, 31.25, 0
109788, 109788618, -1.07, -0.01, -0.01, 0.0, 0.0, 0.0, 31.25, 0
109788, 109788618, -1.07, -0.01, -0.01, 0.0, 0.0, 0.0, 31.25, 0
109788, 109788618, -1.07, -0.01, -0.01, 0.0, 0.0, 0.0, 31.25, 0
109788, 109788618, -1.07, -0.01, -0.01, 0.0, 0.0, 0.0, 31.25, 0
109788, 109788618, -1.07, -0.01, -0.01, 0.0, 0.0, 0.0, 31.25, 0
109788, 109788618, -1.07, -0.01, -0.01, 0.0, 0.0, 0.0, 31.25, 0
109788, 109788618, -1.07, -0.01, -0.01, 0.0, 0.0, 0.0, 31.25, 0
109788, 109788618, -1.07, -0.01, -0.01, 0.0, 0.0, 0.0, 31.25, 0
109788, 109788618, -1.07, -0.01, -0.01, 0.0, 0.0, 0.0, 31.25, 0
109788, 109788618, -1.07, -0.01, -0.01, 0.0, 0.0, 0.0, 31.25, 0
109788, 109788618, -1.07, -0.01, -0.01, 0.0, 0.0, 0.0, 31.25, 0
109788, 109788618, -1.07, -0.01, -0.01, 0.0, 0.0, 0.0, 31.25, 0
109788, 109788618, -1.07, -0.01, -0.01, 0.0, 0.0, 0.0, 31.25, 0
109788, 109788618, -1.07, -0.01, -0.01, 0.0, 0.0, 0.0, 31.25, 0
117357, 117357614, -1.06, -0.01, -0.01, 0.01, 0.01, 0.01, 31.35, 0
117357, 117357614, -106, -12659, -2147483481, -6, -3073, 1610612737, 3135, 1
117357, 117357614, -1.06, -0.01, -0.01, 0.01, 0.01, 0.01, 31.35, 0
117357, 117357614, -1.06, -0.01, -0.01, 0.01, 0.01, 0.01, 31.35, 0
117357, 117357614, -1.06, -0.01, -0.01, 0.01, 0.01, 0.01, 31.35, 0
117357, 117357614, -1.06, -0.01, -0.01, 0.01, 0.01, 0.01, 31.35, 0
117357, 117357614, -1.06, -0.01, -0.01, 0.01, 0.01, 0.01, 31.35, 0
117357, 117357614, -1.06, -0.01, -0.01, 0.01, 0.01, 0.01, 31.35, 0
117357, 117357614, -1.06, -0.01, -0.01, 0.01, 0.01, 0.01, 31.35, 0
117357, 117357614, -1.06, -0.01, -0.01, 0.01, 0.01, 0.01, 31.35, 0
117357, 117357614, -1.06, -0.01, -0.01, 0.01, 0.01, 0.01, 31.35, 0
117357, 117357614, -1.06, -0.01, -0.01, 0.01, 0.01, 0.01, 31.35, 0
117357, 117357614, -1.06, -0.01, -0.01, 0.01, 0.01, 0.01, 31.35, 0
117357, 117357614, -1.06, -0.01, -0.01, 0.01, 0.01, 0.01, 31.35, 0
117357, 117357614, -1.06, -0.01, -0.01, 0.01, 0.01, 0.01, 31.35, 0
117357, 117357614, -1.06, -0.01, -0.01, 0.01, 0.01, 0.01, 31.35, 0
117357, 117357614, -1.06, -0.01, -0.01, 0.01, 0.01, 0.01, 31.35, 0
117357, 117357614, -1.06, -0.01, -0.01, 0.01, 0.01, 0.01, 31.35, 0
117357, 117357614, -1.06, -0.01, -0.01, 0.01, 0.01, 0.01, 31.35, 0
117357, 117357614, -1.06, -0.01, -0.01, 0.01, 0.01, 0.01, 31.35, 0
117357, 117357614, -1.06, -0.01, -0.01, 0.01, 0.01, 0.01, 31.35, 0
117357, 117357614, -1.06, -0.01, -0.01, 0.01, 0.01, 0.01, 31.35, 0
117357, 117357614, -1.06, -0.01, -0.01, 0.01, 0.01, 0.01, 31.35, 0
117357, 117357614, -1.06, -0.01, -0.01, 0.01, 0.01, 0.01, 31.35, 0
117357, 117357614, -1.06, -0.01, -0.01, 0.01, 0.01, 0.01, 31.35, 0
117357, 117357614, -1.06, -0.01, -0.01, 0.01, 0.01, 0.01, 31.35, 0
117357, 117357614, -1.06, -0.01, -0.01, 0.01, 0.01, 0.01, 31.35, 0
117357, 117357614, -1.06, -0.01, -0.01, 0.01, 0.01, 0.01, 31.35, 0
117357, 117357614, -1.06, -0.01, -0.01, 0.01, 0.01, 0.01, 31.35, 0
117357, 117357614, -1.06, -0.01, -0.01, 0.01, 0.01, 0.01, 31.35, 0
117357, 117357614, -1.06, -0.01, -0.01, 0.01, 0.01, 0.01, 31.35, 0
117357, 117357614, -1.06, -0.01, -0.01, 0.01, 0.01, 0.01, 31.35, 0
117357, 117357614, -1.06, -0.01, -0.01, 0.01, 0.01, 0.01, 31.35, 0
117357, 117357614, -1.06, -0.01, -0.01, 0.01, 0.01, 0.01, 31.35, 0
117357, 117357614, -1.06, -0.01, -0.01, 0.01, 0.01, 0.01, 31.35, 0
117357, 117357614, -1.06, -0.01, -0.01, 0.01, 0.01, 0.01, 31.35, 0
117357, 117357614, -1.06, -0.01, -0.01, 0.01, 0.01, 0.01, 31.35, 0
117357, 117357614, -1.06, -0.01, -0.01, 0.01, 0.01, 0.01, 31.35, 0
117357, 117357614, -1.06, -0.01, -0.01, 0.01, 0.01, 0.01, 31.35, 0
117357, 117357614, -1.06, -0.01, -0.01, 0.01, 0.01, 0.01, 31.35, 0
126026, 126026618, -1.07, -0.01, -0.01, 0.02, 0.02, 0.02, 31.21, 0
126026, 126026618, -1.07, -0.01, -0.01, 0.02, 0.02, 0.02, 31.21, 0
126026, 126026618, -1.07, -0.01, -0.01, 0.02, 0.02, 0.02, 31.21, 0
126026, 126026618, -1.07, -0.01, -0.01, 0.02, 0.02, 0.02, 31.21, 0
126026, 126026618, -1.07, -0.01, -0.01, 0.02, 0.02, 0.02, 31.21, 0
126026, 126026618, -1.07, -0.01, -0.01, 0.02, 0.02, 0.02, 31.21, 0
126026, 126026618, -1.07, -0.01, -0.01, 0.02, 0.02, 0.02, 31.21, 0
126026, 126026618, -1.07, -0.01, -0.01, 0.02, 0.02, 0.02, 31.21, 0
126026, 126026618, -1.07, -0.01, -0.01, 0.02, 0.02, 0.02, 31.21, 0
126026, 126026618, -1.07, -0.01, -0.01, 0.02, 0.02, 0.02, 31.21, 0
126026, 126026618, -1.07, -0.01, -0.01, 0.02, 0.02, 0.02, 31.21, 0
126026, 126026618, -1.07, -0.01, -0.01, 0.02, 0.02, 0.02, 31.21, 0
123978, 126026618, -107, -375, -2147483478, -6, -4, 4, 3313, 1
126026, 126026618, -1.07, -0.01, -0.01, 0.02, 0.02, 0.02, 31.21, 0
126026, 126026618, -1.07, -0.01, -0.01, 0.02, 0.02, 0.02, 31.21, 0
126026, 126026618, -1.07, -0.01, -0.01, 0.02, 0.02, 0.02, 31.21, 0
126026, 126026618, -1.07, -0.01, -0.01, 0.02, 0.02, 0.02, 31.21, 0
126026, 126026618, -1.07, -0.01, -0.01, 0.02, 0.02, 0.02, 31.21, 0
126026, 126026618, -1.07, -0.01, -0.01, 0.02, 0.02, 0.02, 31.21, 0
126026, 126026618, -1.07, -0.01, -0.01, 0.02, 0.02, 0.02, 31.21, 0
126026, 126026618, -1.07, -0.01, -0.01, 0.02, 0.02, 0.02, 31.21, 0
126026, 126026618, -1.07, -0.01, -0.01, 0.02, 0.02, 0.02, 31.21, 0
126026, 126026618, -1.07, -0.01, -0.01, 0.02, 0.02, 0.02, 31.21, 0
126026, 126026618, -1.07, -0.01, -0.01, 0.02, 0.02, 0.02, 31.21, 0
126026, 126026618, -1.07, -0.01, -0.01, 0.02, 0.02, 0.02, 31.21, 0
126026, 126026618, -1.07, -0.01, -0.01, 0.02, 0.02, 0.02, 31.21, 0
126026, 126026618, -1.07, -0.01, -0.01, 0.02, 0.02, 0.02, 31.21, 0
126026, 126026618, -1.07, -0.01, -0.01, 0.02, 0.02, 0.02, 31.21, 0
126026, 126026618, -1.07, -0.01, -0.01, 0.02, 0.02, 0.02, 31.21, 0
126026, 126026618, -1.07, -0.01, -0.01, 0.02, 0.02, 0.02, 31.21, 0
126026, 126026618, -1.07, -0.01, -0.01, 0.02, 0.02, 0.02, 31.21, 0
126026, 126026618, -1.07, -0.01, -0.01, 0.02, 0.02, 0.02, 31.21, 0
126026, 126026618, -1.07, -0.01, -0.01, 0.02, 0.02, 0.02, 31.21, 0
126026, 126026618, -1.07, -0.01, -0.01, 0.02, 0.02, 0.02, 31.21, 0
126026, 126026618, -1.07, -0.01, -0.01, 0.02, 0.02, 0.02, 31.21, 0
133596, 133596614, -1.1, -0.01, -0.01, 0.03, 0.03, 0.03, 31.44, 0
133596, 133596614, -1.1, -0.01, -0.01, 0.03, 0.03, 0.03, 31.44, 0
133596, 133596614, -1.1, -0.01, -0.01, 0.03, 0.03, 0.03, 31.44, 0
133596, 133596614, -1.1, -0.01, -0.01, 0.03, 0.03, 0.03, 31.44, 0
133596, 133596614, -1.1, -0.01, -0.01, 0.03, 0.03, 0.03, 31.44, 0
133596, 133596614, -1.1, -0.01, -0.01, 0.03, 0.03, 0.03, 31.44, 0
133596, 133596614, -1.1, -0.01, -0.01, 0.03, 0.03, 0.03, 31.44, 0
133596, 133596614, -1.1, -0.01, -0.01, 0.03, 0.03, 0.03, 31.44, 0
133596, 133596614, -1.1, -0.01, -0.01, 0.03, 0.03, 0.03, 31.44, 0
133596, 133596614, -1.1, -0.01, -0.01, 0.03, 0.03, 0.03, 31.44, 0
133596, 133596614, -1.1, -0.01, -0.01, 0.03, 0.03, 0.03, 31.44, 0
133596, 133596614, -1.1, -0.01, -0.01, 0.03, 0.03, 0.03, 31.44, 0
133596, 133596614, -1.1, -0.01, -0.01, 0.03, 0.03, 0.03, 31.44, 0
133596, 133596614, -1.1, -0.01, -0.01, 0.03, 0.03, 0.03, 31.44, 0
133596, 133596614, -1.1, -0.01, -0.01, 0.03, 0.03, 0.03, 31.44, 0
133596, 133596614, -1.1, -0.01, -0.01, 0.03, 0.03, 0.03, 31.44, 0
133596, 133596614, -1.1, -0.01, -0.01, 0.03, 0.03, 0.03, 31.44, 0
133596, 133596614, -196718, -375, -2147483466, -6, -97, 1610612741, 100666376, 1
133596, 133596614, -1.1, -0.01, -0.01, 0.03, 0.03, 0.03, 31.44, 0
133596, 133596614, -1.1, -0.01, -0.01, 0.03, 0.03, 0.03, 31.44, 0
133596, 133596614, -110, -375, 182, -6, -4, -1073741819, 100666440, 1
133596, 133596614, -1.1, -0.01, -0.01, 0.03, 0.03, 0.03, 31.44, 0
133596, 133596614, -1.1, -0.01, -0.01, 0.03, 0.03, 0.03, 31.44, 0
133596, 133596614, -1.1, -0.01, -0.01, 0.03, 0.03, 0.03, 31.44, 0
133596, 133596614, -1.1, -0.01, -0.01, 0.03, 0.03, 0.03, 31.44, 0
133596, 133596614, -1.1, -0.01, -0.01, 0.03, 0.03, 0.03, 31.44, 0
133596, 133596614, -1.1, -0.01, -0.01, 0.03, 0.03, 0.03, 31.44, 0
133596, 133596614, -1.1, -0.01, -0.01, 0.03, 0.03, 0.03, 31.44, 0
133596, 133596614, -1.1, -0.01, -0.01, 0.03, 0.03, 0.03, 31.44, 0
133596, 133596614, -1.1, -0.01, -0.01, 0.03, 0.03, 0.03, 31.44, 0
133596, 133596614, -1.1, -0.01, -0.01, 0.03, 0.03, 0.03, 31.44, 0
133596, 133596614, -1.1, -0.01, -0.01, 0.03, 0.03, 0.03, 31.44, 0
133596, 133596614, -1.1, -0.01, -0.01, 0.03, 0.03, 0.03, 31.44, 0
133596, 133596614, -1.1, -0.01, -0.01, 0.03, 0.03, 0.03, 31.44, 0
133596, 133596614, -1.1, -0.01, -0.01, 0.03, 0.03, 0.03, 31.44, 0
141165, 141165614, -1.03, -0.01, -0.01, 0.03, 0.03, 0.03, 31.3, 0
141165, 141165614, -1.03, -0.01, -0.01, 0.03, 0.03, 0.03, 31.3, 0
141165, 141165614, -1.03, -0.01, -0.01, 0.03, 0.03, 0.03, 31.3, 0
141165, 141165614, -1.03, -0.01, -0.01, 0.03, 0.03, 0.03, 31.3, 0
141165, 141165614, -1.03, -0.01, -0.01, 0.03, 0.03, 0.03, 31.3, 0
141165, 141165614, -1.03, -0.01, -0.01, 0.03, 0.03, 0.03, 31.3, 0
141165, 141165614, -1.03, -0.01, -0.01, 0.03, 0.03, 0.03, 31.3, 0
141165, 141165614, -1.03, -0.01, -0.01, 0.03, 0.03, 0.03, 31.3, 0
141165, 141165614, -1.03, -0.01, -0.01, 0.03, 0.03, 0.03, 31.3, 0
141165, 141165614, -1.03, -0.01, -0.01, 0.03, 0.03, 0.03, 31.3, 0
141165, 141165614, -1.03, -0.01, -0.01, 0.03, 0.03, 0.03, 31.3, 0
141165, 141165614, -103, -12658, -2147483471, -6, -2, -1610612731, 3194, 1
141165, 141165614, -1.03, -0.01, -0.01, 0.03, 0.03, 0.03, 31.3, 0
141165, 141165614, -1.03, -0.01, -0.01, 0.03, 0.03, 0.03, 31.3, 0
141165, 141165614, -1.03, -0.01, -0.01, 0.03, 0.03, 0.03, 31.3, 0
141165, 141165614, -1.03, -0.01, -0.01, 0.03, 0.03, 0.03, 31.3, 0
141165, 141165614, -1.03, -0.01, -0.01, 0.03, 0.03, 0.03, 31.3, 0
141165, 141165614, -1.03, -0.01, -0.01, 0.03, 0.03, 0.03, 31.3, 0
141165, 141165614, -1.03, -0.01, -0.01, 0.03, 0.03, 0.03, 31.3, 0
141165, 141165614, -1.03, -0.01, -0.01, 0.03, 0.03, 0.03, 31.3, 0
141165, 141165614, -1.03, -0.01, -0.01, 0.03, 0.03, 0.03, 31.3, 0
141165, 141165614, -1.03, -0.01, -0.01, 0.03, 0.03, 0.03, 31.3, 0
141165, 141165614, -1.03, -0.01, -0.01, 0.03, 0.03, 0.03, 31.3, 0
141165, 141165614, -1.03, -0.01, -0.01, 0.03, 0.03, 0.03, 31.3, 0
141165, 141165614, -1.03, -0.01, -0.01, 0.03, 0.03, 0.03, 31.3, 0
141165, 141165614, -1.03, -0.01, -0.01, 0.03, 0.03, 0.03, 31.3, 0
141165, 141165614, -1.03, -0.01, -0.01, 0.03, 0.03, 0.03, 31.3, 0
141165, 141165614, -1.03, -0.01, -0.01, 0.03, 0.03, 0.03, 31.3, 0
141165, 141165614, -1.03, -0.01, -0.01, 0.03, 0.03, 0.03, 31.3, 0
141165, 141165614, -1.03, -0.01, -0.01, 0.03, 0.03, 0.03, 31.3, 0
141165, 141165614, -1.03, -0.01, -0.01, 0.03, 0.03, 0.03, 31.3, 0
141165, 141165614, -1.03, -0.01, -0.01, 0.03, 0.03, 0.03, 31.3, 0
141165, 141165614, -1.03, -0.01, -0.01, 0.03, 0.03, 0.03, 31.3, 0
141165, 141165614, -1.03, -0.01, -0.01, 0.03, 0.03, 0.03, 31.3, 0
141165, 141165614, -1.03, -0.01, -0.01, 0.03, 0.03, 0.03, 31.3, 0
148733, 148733612, -1.1, -0.01, -0.01, 0.0, 0.0, 0.0, 31.4, 0
148733, 148733612, -1.1, -0.01, -0.01, 0.0, 0.0, 0.0, 31.4, 0
148733, 148733612, -1.1, -0.01, -0.01, 0.0, 0.0, 0.0, 31.4, 0
148733, 148733612, -1.1, -0.01, -0.01, 0.0, 0.0, 0.0, 31.4, 0
148733, 148733612, -1.1, -0.01, -0.01, 0.0, 0.0, 0.0, 31.4, 0
148733, 148733612, -1.1, -0.01, -0.01, 0.0, 0.0, 0.0, 31.4, 0
148733, 148733612, -1.1, -0.01, -0.01, 0.0, 0.0, 0.0, 31.4, 0
148733, 148733612, -1.1, -0.01, -0.01, 0.0, 0.0, 0.0, 31.4, 0
148733, 148733612, -1.1, -0.01, -0.01, 0.0, 0.0, 0.0, 31.4, 0
148733, 148733612, -1.1, -0.01, -0.01, 0.0, 0.0, 0.0, 31.4, 0
148733, 148733612, -1.1, -0.01, -0.01, 0.0, 0.0, 0.0, 31.4, 0
148733, 148733612, -1.1, -0.01, -0.01, 0.0, 0.0, 0.0, 31.4, 0
148733, 148733612, -1.1, -0.01, -0.01, 0.0, 0.0, 0.0, 31.4, 0
148733, 148733612, -1.1, -0.01, -0.01, 0.0, 0.0, 0.0, 31.4, 0
148733, 148733612, -1.1, -0.01, -0.01, 0.0, 0.0, 0.0, 31.4, 0
148733, 148733612, -1.1, -0.01, -0.01, 0.0, 0.0, 0.0, 31.4, 0
148733, 148733612, -1.1, -0.01, -0.01, 0.0, 0.0, 0.0, 31.4, 0
148733, 148733612, -1.1, -0.01, -0.01, 0.0, 0.0, 0.0, 31.4, 0
148733, 148733612, -1.1, -0.01, -0.01, 0.0, 0.0, 0.0, 31.4, 0
148733, 148733612, -1.1, -0.01, -0.01, 0.0, 0.0, 0.0, 31.4, 0
148733, 148733612, -1.1, -0.01, -0.01, 0.0, 0.0, 0.0, 31.4, 0
148733, 148733612, -1.1, -0.01, -0.01, 0.0, 0.0, 0.0, 31.4, 0
148733, 148733612, -1.1, -0.01, -0.01, 0.0, 0.0, 0.0, 31.4, 0
148733, 148733612, -1.1, -0.01, -0.01, 0.0, 0.0, 0.0, 31.4, 0
148733, 148733612, -1.1, -0.01, -0.01, 0.0, 0.0, 0.0, 31.4, 0
148733, 148733612, -1.1, -0.01, -0.01, 0.0, 0.0, 0.0, 31.4, 0
148733, 148733612, -1.1, -0.01, -0.01, 0.0, 0.0, 0.0, 31.4, 0
148733, 148733612, -1.1, -0.01, -0.01, 0.0, 0.0, 0.0, 31.4, 0
148733, 148733612, -1.1, -0.01, -0.01, 0.0, 0.0, 0.0, 31.4, 0
148733, 148733612, -1.1, -0.01, -0.01, 0.0, 0.0, 0.0, 31.4, 0
148733, 148733612, -1.1, -0.01, -0.01, 0.0, 0.0, 0.0, 31.4, 0
148733, 148733612, -1.1, -0.01, -0.01, 0.0, 0.0, 0.0, 31.4, 0
148733, 148733612, -1.1, -0.01, -0.01, 0.0, 0.0, 0.0, 31.4, 0
148733, 148733612, -1.1, -0.01, -0.01, 0.0, 0.0, 0.0, 31.4, 0
148733, 148733612, -1.1, -0.01, -0.01, 0.0, 0.0, 0.0, 31.4, 0
148733, 148733612, -1.1, -0.01, -0.01, 0.0, 0.0, 0.0, 31.4, 0
148733, 148733612, -110, -369, -2147483477, -6, -805309441, 0, 2500, 1
148733, 148733612, -1.1, -0.01, -0.01, 0.0, 0.0, 0.0, 31.4, 0
148733, 148733612, -1.1, -0.01, -0.01, 0.0, 0.0, 0.0, 31.4, 0
148733, 148733612, -1.1, -0.01, -0.01, 0.0, 0.0, 0.0, 31.4, 0
157403, 157403617, -1.08, -0.01, -0.01, 0.01, 0.01, 0.01, 31.44, 0
157403, 157403617, -1.08, -0.01, -0.01, 0.01, 0.01, 0.01, 31.44, 0
157403, 157403617, -1.08, -0.01, -0.01, 0.01, 0.01, 0.01, 31.44, 0
157403, 157403617, -1.08, -0.01, -0.01, 0.01, 0.01, 0.01, 31.44, 0
157403, 157403617, -1.08, -0.01, -0.01, 0.01, 0.01, 0.01, 31.44, 0
157403, 157403617, -1.08, -0.01, -0.01, 0.01, 0.01, 0.01, 31.44, 0
157403, 157403617, -1.08, -0.01, -0.01, 0.01, 0.01, 0.01, 31.44, 0
157403, 157403617, -1.08, -0.01, -0.01, 0.01, 0.01, 0.01, 31.44, 0
157403, 157403617, -1.08, -0.01, -0.01, 0.01, 0.01, 0.01, 31.44, 0
157403, 157403617, -1.08, -0.01, -0.01, 0.01, 0.01, 0.01, 31.44, 0
157403, 157403617, -1.08, -0.01, -0.01, 0.01, 0.01, 0.01, 31.44, 0
157403, 157403617, -1.08, -0.01, -0.01, 0.01, 0.01, 0.01, 31.44, 0
157403, 157403617, -1.08, -0.01, -0.01, 0.01, 0.01, 0.01, 31.44, 0
157403, 157403617, -1.08, -0.01, -0.01, 0.01, 0.01, 0.01, 31.44, 0
157403, 157403617, -1.08, -0.01, -0.01, 0.01, 0.01, 0.01, 31.44, 0
157403, 157403617, -1.08, -0.01, -0.01, 0.01, 0.01, 0.01, 31.44, 0
157403, 157403617, -1.08, -0.01, -0.01, 0.01, 0.01, 0.01, 31.44, 0
157403, 157403617, -1.08, -0.01, -0.01, 0.01, 0.01, 0.01, 31.44, 0
157403, 157403617, -1.08, -0.01, -0.01, 0.01, 0.01, 0.01, 31.44, 0
157403, 157403617, -1.08, -0.01, -0.01, 0.01, 0.01, 0.01, 31.44, 0
157403, 157403617, -1.08, -0.01, -0.01, 0.01, 0.01, 0.01, 31.44, 0
157403, 157403617, -1.08, -0.01, -0.01, 0.01, 0.01, 0.01, 31.44, 0
157403, 157403617, -1.08, -0.01, -0.01, 0.01, 0.01, 0.01, 31.44, 0
157403, 157403617, -1.08, -0.01, -0.01, 0.01, 0.01, 0.01, 31.44, 0
157403, 157403617, -1.08, -0.01, -0.01, 0.01, 0.01, 0.01, 31.44, 0
157403, 157403617, -1.08, -0.01, -0.01, 0.01, 0.01, 0.01, 31.44, 0
157403, 157403617, -1.08, -0.01, -0.01, 0.01, 0.01, 0.01, 31.44, 0
157403, 157403617, -1.08, -0.01, -0.01, 0.01, 0.01, 0.01, 31.44, 0
157403, 157403617, -1.08, -0.01, -0.01, 0.01, 0.01, 0.01, 31.44, 0
157403, 157403617, -1.08, -0.01, -0.01, 0.01, 0.01, 0.01, 31.44, 0
157403, 157403617, -1.08, -0.01, -0.01, 0.01, 0.01, 0.01, 31.44, 0
157403, 157403617, -1.08, -0.01, -0.01, 0.01, 0.01, 0.01, 31.44, 0
157403, 157403617, -1.08, -0.01, -0.01, 0.01, 0.01, 0.01, 31.44, 0
157403, 157403617, -1.08, -0.01, -0.01, 0.01, 0.01, 0.01, 31.44, 0
157403, 157403617, -1.08, -0.01, -0.01, 0.01, 0.01, 0.01, 31.44, 0
164972, 164972613, -1.12, -0.01, -0.01, 0.03, 0.03, 0.03, 31.44, 0
164972, 164972613, -1.12, -0.01, -0.01, 0.03, 0.03, 0.03, 31.44, 0
164972, 164972613, -1.12, -0.01, -0.01, 0.03, 0.03, 0.03, 31.44, 0
164972, 164972613, -1.12, -0.01, -0.01, 0.03, 0.03, 0.03, 31.44, 0
164972, 164972613, -1.12, -0.01, -0.01, 0.03, 0.03, 0.03, 31.44, 0
164972, 164972613, -1.12, -0.01, -0.01, 0.03, 0.03, 0.03, 31.44, 0
164972, 164972613, -1.12, -0.01, -0.01, 0.03, 0.03, 0.03, 31.44, 0
164972, 164972613, -1.12, -0.01, -0.01, 0.03, 0.03, 0.03, 31.44, 0
164972, 164972613, -1.12, -0.01, -0.01, 0.03, 0.03, 0.03, 31.44, 0
164972, 164972613, -1.12, -0.01, -0.01, 0.03, 0.03, 0.03, 31.44, 0
164972, 164972613, -1.12, -0.01, -0.01, 0.03, 0.03, 0.03, 31.44, 0
164972, 164972613, -1.12, -0.01, -0.01, 0.03, 0.03, 0.03, 31.44, 0
164972, 164972613, -1.12, -0.01, -0.01, 0.03, 0.03, 0.03, 31.44, 0
164972, 164972613, -1.12, -0.01, -0.01, 0.03, 0.03, 0.03, 31.44, 0
164972, 164972613, -1.12, -0.01, -0.01, 0.03, 0.03, 0.03, 31.44, 0
164972, 164972613, -1.12, -0.01, -0.01, 0.03, 0.03, 0.03, 31.44, 0
164972, 164972613, -1.12, -0.01, -0.01, 0.03, 0.03, 0.03, 31.44, 0
164972, 164972613, -1.12, -0.01, -0.01, 0.03, 0.03, 0.03, 31.44, 0
164972, 164972613, -1.12, -0.01, -0.01, 0.03, 0.03, 0.03, 31.44, 0
164972, 164972613, -1.12, -0.01, -0.01, 0.03, 0.03, 0.03, 31.44, 0
164972, 164972613, -1.12, -0.01, -0.01, 0.03, 0.03, 0.03, 31.44, 0
164972, 164972613, -1.12, -0.01, -0.01, 0.03, 0.03, 0.03, 31.44, 0
164972, 164972613, -1.12, -0.01, -0.01, 0.03, 0.03, 0.03, 31.44, 0
164972, 164972613, -1.12, -0.01, -0.01, 0.03, 0.03, 0.03, 31.44, 0
164972, 164972613, -1.12, -0.01, -0.01, 0.03, 0.03, 0.03, 31.44, 0
164972, 164972613, -1.12, -0.01, -0.01, 0.03, 0.03, 0.03, 31.44, 0
164972, 164972613, -1.12, -0.01, -0.01, 0.03, 0.03, 0.03, 31.44, 0
164972, 164972613, -1.12, -0.01, -0.01, 0.03, 0.03, 0.03, 31.44, 0
164972, 164972613, -1.12, -0.01, -0.01, 0.03, 0.03, 0.03, 31.44, 0
164972, 164972613, -1.12, -0.01, -0.01, 0.03, 0.03, 0.03, 31.44, 0
164972, 164972613, -1.12, -0.01, -0.01, 0.03, 0.03, 0.03, 31.44, 0
164972, 164972613, -1.12, -0.01, -0.01, 0.03, 0.03, 0.03, 31.44, 0
164972, 164972613, -1.12, -0.01, -0.01, 0.03, 0.03, 0.03, 31.44, 0
164972, 164972613, -1.12, -0.01, -0.01, 0.03, 0.03, 0.03, 31.44, 0
164972, 164972613, -1.12, -0.01, -0.01, 0.03, 0.03, 0.03, 31.44, 0
164972, 164972613, -1.12, -0.01, -0.01, 0.03, 0.03, 0.03, 31.44, 0
164972, 164972613, -1.12, -0.01, -0.01, 0.03, 0.03, 0.03, 31.44, 0
164972, 164972613, -1.12, -0.01, -0.01, 0.03, 0.03, 0.03, 31.44, 0
164972, 164972613, -1.12, -0.01, -0.01, 0.03, 0.03, 0.03, 31.44, 0
164972, 164972613, -1.12, -0.01, -0.01, 0.03, 0.03, 0.03, 31.44, 0
173638, 173638614, -1.05, -0.01, -0.01, 0.01, 0.01, 0.01, 31.54, 0
173638, 173638614, -1.05, -0.01, -0.01, 0.01, 0.01, 0.01, 31.54, 0
173638, 173638614, -1.05, -0.01, -0.01, 0.01, 0.01, 0.01, 31.54, 0
173638, 173638614, -1.05, -0.01, -0.01, 0.01, 0.01, 0.01, 31.54, 0
173638, 173638614, -1.05, -0.01, -0.01, 0.01, 0.01, 0.01, 31.54, 0
173638, 173638614, -1.05, -0.01, -0.01, 0.01, 0.01, 0.01, 31.54, 0
173638, 173638614, -1.05, -0.01, -0.01, 0.01, 0.01, 0.01, 31.54, 0
173638, 173638614, -1.05, -0.01, -0.01, 0.01, 0.01, 0.01, 31.54, 0
173638, 173638614, -1.05, -0.01, -0.01, 0.01, 0.01, 0.01, 31.54, 0
173638, 173638614, -1.05, -0.01, -0.01, 0.01, 0.01, 0.01, 31.54, 0
173638, 173638614, -1.05, -0.01, -0.01, 0.01, 0.01, 0.01, 31.54, 0
173638, 173638614, -1.05, -0.01, -0.01, 0.01, 0.01, 0.01, 31.54, 0
173638, 173638614, -1.05, -0.01, -0.01, 0.01, 0.01, 0.01, 31.54, 0
173638, 173638614, -1.05, -0.01, -0.01, 0.01, 0.01, 0.01, 31.54, 0
173638, 173638614, -1.05, -0.01, -0.01, 0.01, 0.01, 0.01, 31.54, 0
173638, 173638614, -1.05, -0.01, -0.01, 0.01, 0.01, 0.01, 31.54, 0
173638, 173638614, -1.05, -0.01, -0.01, 0.01, 0.01, 0.01, 31.54, 0
173638, 173638614, -1.05, -0.01, -0.01, 0.01, 0.01, 0.01, 31.54, 0
173638, 173638614, -1.05, -0.01, -0.01, 0.01, 0.01, 0.01, 31.54, 0
173638, 173638614, -1.05, -0.01, -0.01, 0.01, 0.01, 0.01, 31.54, 0
173638, 173638614, -1.05, -0.01, -0.01, 0.01, 0.01, 0.01, 31.54, 0
173638, 173638614, -1.05, -0.01, -0.01, 0.01, 0.01, 0.01, 31.54, 0
173638, 173638614, -1.05, -0.01, -0.01, 0.01, 0.01, 0.01, 31.54, 0
173638, 173638614, -1.05, -0.01, -0.01, 0.01, 0.01, 0.01, 31.54, 0
173638, 173638614, -1.05, -0.01, -0.01, 0.01, 0.01, 0.01, 31.54, 0
173638, 173638614, -1.05, -0.01, -0.01, 0.01, 0.01, 0.01, 31.54, 0
173638, 173638614, -1.05, -0.01, -0.01, 0.01, 0.01, 0.01, 31.54, 0
173638, 173638614, -1.05, -0.01, -0.01, 0.01, 0.01, 0.01, 31.54, 0
173638, 173638614, -1.05, -0.01, -0.01, 0.01, 0.01, 0.01, 31.54, 0
173638, 173638614, -1.05, -0.01, -0.01, 0.01, 0.01, 0.01, 31.54, 0
173638, 173638614, -1.05, -0.01, -0.01, 0.01, 0.01, 0.01, 31.54, 0
173638, 173638614, -1.05, -0.01, -0.01, 0.01, 0.01, 0.01, 31.54, 0
173638, 173638614, -1.05, -0.01, -0.01, 0.01, 0.01, 0.01, 31.54, 0
173638, 173638614, -1.05, -0.01, -0.01, 0.01, 0.01, 0.01, 31.54, 0
173638, 173638614, -1.05, -0.01, -0.01, 0.01, 0.01, 0.01, 31.54, 0
181207, 181207614, -1.08, -0.01, -0.01, 0.02, 0.02, 0.02, 31.54, 0
181207, 181207614, -1.08, -0.01, -0.01, 0.02, 0.02, 0.02, 31.54, 0
181207, 181207614, -1.08, -0.01, -0.01, 0.02, 0.02, 0.02, 31.54, 0
181207, 181207614, -1.08, -0.01, -0.01, 0.02, 0.02, 0.02, 31.54, 0
181207, 181207614, -1.08, -0.01, -0.01, 0.02, 0.02, 0.02, 31.54, 0
181207, 181207614, -196716, -375, -2147483478, -6, -4, 1610612740, 3154, 1
181207, 181207614, -1.08, -0.01, -0.01, 0.02, 0.02, 0.02, 31.54, 0
181207, 181207614, -1.08, -0.01, -0.01, 0.02, 0.02, 0.02, 31.54, 0
181207, 181207614, -1.08, -0.01, -0.01, 0.02, 0.02, 0.02, 31.54, 0
181207, 181207614, -1.08, -0.01, -0.01, 0.02, 0.02, 0.02, 31.54, 0
181207, 181207614, -1.08, -0.01, -0.01, 0.02, 0.02, 0.02, 31.54, 0
181207, 181207614, -1.08, -0.01, -0.01, 0.02, 0.02, 0.02, 31.54, 0
181207, 181207614, -1.08, -0.01, -0.01, 0.02, 0.02, 0.02, 31.54, 0
181207, 181207614, -1.08, -0.01, -0.01, 0.02, 0.02, 0.02, 31.54, 0
181207, 181207614, -1.08, -0.01, -0.01, 0.02, 0.02, 0.02, 31.54, 0
181207, 181207614, -1.08, -0.01, -0.01, 0.02, 0.02, 0.02, 31.54, 0
181207, 181207614, -1.08, -0.01, -0.01, 0.02, 0.02, 0.02, 31.54, 0
181207, 181207614, -1.08, -0.01, -0.01, 0.02, 0.02, 0.02, 31.54, 0
181207, 181207614, -1.08, -0.01, -0.01, 0.02, 0.02, 0.02, 31.54, 0
181207, 181207614, -1.08, -0.01, -0.01, 0.02, 0.02, 0.02, 31.54, 0
181207, 181207614, -1.08, -0.01, -0.01, 0.02, 0.02, 0.02, 31.54, 0
181207, 181207614, -1.08, -0.01, -0.01, 0.02, 0.02, 0.02, 31.54, 0
181207, 181207614, -1.08, -0.01, -0.01, 0.02, 0.02, 0.02, 31.54, 0
181207, 181207614, -1.08, -0.01, -0.01, 0.02, 0.02, 0.02, 31.54, 0
181207, 181207614, -1.08, -0.01, -0.01, 0.02, 0.02, 0.02, 31.54, 0
181207, 181207614, -1.08, -0.01, -0.01, 0.02, 0.02, 0.02, 31.54, 0
181207, 181207614, -1.08, -0.01, -0.01, 0.02, 0.02, 0.02, 31.54, 0
181207, 181207614, -1.08, -0.01, -0.01, 0.02, 0.02, 0.02, 31.54, 0
181207, 181207614, -1.08, -0.01, -0.01, 0.02, 0.02, 0.02, 31.54, 0
181207, 181207614, -1.08, -0.01, -0.01, 0.02, 0.02, 0.02, 31.54, 0
181207, 181207614, -1.08, -0.01, -0.01, 0.02, 0.02, 0.02, 31.54, 0
181207, 181207614, -1.08, -0.01, -0.01, 0.02, 0.02, 0.02, 31.54, 0
181207, 181207614, -1.08, -0.01, -0.01, 0.02, 0.02, 0.02, 31.54, 0
181207, 181207614, -1.08, -0.01, -0.01, 0.02, 0.02, 0.02, 31.54, 0
181207, 181207614, -1.08, -0.01, -0.01, 0.02, 0.02, 0.02, 31.54, 0
188775, 188775614, -1.06, -0.01, -0.01, -0.01, -0.01, -0.01, 31.63, 0
188775, 188775614, -1.06, -0.01, -0.01, -0.01, -0.01, -0.01, 31.63, 0
188775, 188775614, -1.06, -0.01, -0.01, -0.01, -0.01, -0.01, 31.63, 0
188775, 188775614, -1.06, -0.01, -0.01, -0.01, -0.01, -0.01, 31.63, 0
188775, 188775614, -1.06, -0.01, -0.01, -0.01, -0.01, -0.01, 31.63, 0
188775, 188775614, -1.06, -0.01, -0.01, -0.01, -0.01, -0.01, 31.63, 0
188775, 188775614, -1.06, -0.01, -0.01, -0.01, -0.01, -0.01, 31.63, 0
188775, 188775614, -1.06, -0.01, -0.01, -0.01, -0.01, -0.01, 31.63, 0
188775, 188775614, -1.06, -0.01, -0.01, -0.01, -0.01, -0.01, 31.63, 0
188775, 188775614, -1.06, -0.01, -0.01, -0.01, -0.01, -0.01, 31.63, 0
188775, 188775614, -1.06, -0.01, -0.01, -0.01, -0.01, -0.01, 31.63, 0
188775, 188775614, -1.06, -0.01, -0.01, -0.01, -0.01, -0.01, 31.63, 0
188775, 188775614, -1.06, -0.01, -0.01, -0.01, -0.01, -0.01, 31.63, 0
188775, 188775614, -1.06, -0.01, -0.01, -0.01, -0.01, -0.01, 31.63, 0
188775, 188775614, -1.06, -0.01, -0.01, -0.01, -0.01, -0.01, 31.63, 0
188775, 188775614, -1.06, -0.01, -0.01, -0.01, -0.01, -0.01, 31.63, 0
188775, 188775614, -1.06, -0.01, -0.01, -0.01, -0.01, -0.01, 31.63, 0
188775, 188775614, -1.06, -0.01, -0.01, -0.01, -0.01, -0.01, 31.63, 0
188775, 188775614, -1.06, -0.01, -0.01, -0.01, -0.01, -0.01, 31.63, 0
188775, 188775614, -1.06, -0.01, -0.01, -0.01, -0.01, -0.01, 31.63, 0
188775, 188775614, -1.06, -0.01, -0.01, -0.01, -0.01, -0.01, 31.63, 0
188775, 188775614, -1.06, -0.01, -0.01, -0.01, -0.01, -0.01, 31.63, 0
188775, 188775614, -1.06, -0.01, -0.01, -0.01, -0.01, -0.01, 31.63, 0
188775, 188775614, -1.06, -0.01, -0.01, -0.01, -0.01, -0.01, 31.63, 0
188775, 188775614, -1.06, -0.01, -0.01, -0.01, -0.01, -0.01, 31.63, 0
188775, 188775614, -1.06, -0.01, -0.01, -0.01, -0.01, -0.01, 31.63, 0
188775, 188775614, -1.06, -0.01, -0.01, -0.01, -0.01, -0.01, 31.63, 0
188775, 188775614, -1.06, -0.01, -0.01, -0.01, -0.01, -0.01, 31.63, 0
188775, 188775614, -1.06, -0.01, -0.01, -0.01, -0.01, -0.01, 31.63, 0
188775, 188775614, -1.06, -0.01, -0.01, -0.01, -0.01, -0.01, 31.63, 0
188775, 188775614, -1.06, -0.01, -0.01, -0.01, -0.01, -0.01, 31.63, 0
188775, 188775614, -1.06, -0.01, -0.01, -0.01, -0.01, -0.01, 31.63, 0
188775, 188775614, -1.06, -0.01, -0.01, -0.01, -0.01, -0.01, 31.63, 0
188775, 188775614, -1.06, -0.01, -0.01, -0.01, -0.01, -0.01, 31.63, 0
188775, 188775614, -1.06, -0.01, -0.01, -0.01, -0.01, -0.01, 31.63, 0
196342, 196342617, -1.13, -0.01, -0.01, 0.01, 0.01, 0.01, 31.68, 0
196342, 196342617, -1.13, -0.01, -0.01, 0.01, 0.01, 0.01, 31.68, 0
196342, 196342617, -1.13, -0.01, -0.01, 0.01, 0.01, 0.01, 31.68, 0
196342, 196342617, -1.13, -0.01, -0.01, 0.01, 0.01, 0.01, 31.68, 0
196342, 196342617, -1.13, -0.01, -0.01, 0.01, 0.01, 0.01, 31.68, 0
196342, 196342617, -1.13, -0.01, -0.01, 0.01, 0.01, 0.01, 31.68, 0
196342, 196342617, -1.13, -0.01, -0.01, 0.01, 0.01, 0.01, 31.68, 0
196342, 196342617, -1.13, -0.01, -0.01, 0.01, 0.01, 0.01, 31.68, 0
196342, 196342617, -1.13, -0.01, -0.01, 0.01, 0.01, 0.01, 31.68, 0
196342, 196342617, -1.13, -0.01, -0.01, 0.01, 0.01, 0.01, 31.68, 0
196342, 196342617, -1.13, -0.01, -0.01, 0.01, 0.01, 0.01, 31.68, 0
196342, 196342617, -1.13, -0.01, -0.01, 0.01, 0.01, 0.01, 31.68, 0
196342, 196342617, -1.13, -0.01, -0.01, 0.01, 0.01, 0.01, 31.68, 0
196342, 196342617, -1.13, -0.01, -0.01, 0.01, 0.01, 0.01, 31.68, 0
196342, 196342617, -1.13, -0.01, -0.01, 0.01, 0.01, 0.01, 31.68, 0
196342, 196342617, -1.13, -0.01, -0.01, 0.01, 0.01, 0.01, 31.68, 0
196342, 196342617, -1.13, -0.01, -0.01, 0.01, 0.01, 0.01, 31.68, 0
196342, 196342617, -1.13, -0.01, -0.01, 0.01, 0.01, 0.01, 31.68, 0
196342, 196342617, -1.13, -0.01, -0.01, 0.01, 0.01, 0.01, 31.68, 0
196342, 196342617, -1.13, -0.01, -0.01, 0.01, 0.01, 0.01, 31.68, 0
196342, 196342617, -1.13, -0.01, -0.01, 0.01, 0.01, 0.01, 31.68, 0
196342, 196342617, -1.13, -0.01, -0.01, 0.01, 0.01, 0.01, 31.68, 0
196342, 196342617, -1.13, -0.01, -0.01, 0.01, 0.01, 0.01, 31.68, 0
196342, 196342617, -1.13, -0.01, -0.01, 0.01, 0.01, 0.01, 31.68, 0
196342, 196342617, -1.13, -0.01, -0.01, 0.01, 0.01, 0.01, 31.68, 0
196342, 196342617, -1.13, -0.01, -0.01, 0.01, 0.01, 0.01, 31.68, 0
196342, 196342617, -1.13, -0.01, -0.01, 0.01, 0.01, 0.01, 31.68, 0
196342, 196342617, -1.13, -0.01, -0.01, 0.01, 0.01, 0.01, 31.68, 0
196342, 196342617, -1.13, -0.01, -0.01, 0.01, 0.01, 0.01, 31.68, 0
196342, 196342617, -1.13, -0.01, -0.01, 0.01, 0.01, 0.01, 31.68, 0
196342, 196342617, -1.13, -0.01, -0.01, 0.01, 0.01, 0.01, 31.68, 0
196342, 196342617, -1.13, -0.01, -0.01, 0.01, 0.01, 0.01, 31.68, 0
196342, 196342617, -1.13, -0.01, -0.01, 0.01, 0.01, 0.01, 31.68, 0
196342, 196342617, -1.13, -0.01, -0.01, 0.01, 0.01, 0.01, 31.68, 0
196342, 196342617, -1.13, -0.01, -0.01, 0.01, 0.01, 0.01, 31.68, 0
203912, 203912616, -1.08, -0.01, -0.01, 0.02, 0.02, 0.02, 31.63, 0
203912, 203912616, -1.08, -0.01, -0.01, 0.02, 0.02, 0.02, 31.63, 0
203912, 203912616, -1.08, -0.01, -0.01, 0.02, 0.02, 0.02, 31.63, 0
203912, 203912616, -1.08, -0.01, -0.01, 0.02, 0.02, 0.02, 31.63, 0
203912, 203912616, -1.08, -0.01, -0.01, 0.02, 0.02, 0.02, 31.63, 0
203912, 203912616, -1.08, -0.01, -0.01, 0.02, 0.02, 0.02, 31.63, 0
203912, 203912616, -1.08, -0.01, -0.01, 0.02, 0.02, 0.02, 31.63, 0
203912, 203912616, -1.08, -0.01, -0.01, 0.02, 0.02, 0.02, 31.63, 0
203912, 203912616, -1.08, -0.01, -0.01, 0.02, 0.02, 0.02, 31.63, 0
203912, 203912616, -1.08, -0.01, -0.01, 0.02, 0.02, 0.02, 31.63, 0
203912, 203912616, -1.08, -0.01, -0.01, 0.02, 0.02, 0.02, 31.63, 0
203912, 203912616, -1.08, -0.01, -0.01, 0.02, 0.02, 0.02, 31.63, 0
203912, 203912616, -1.08, -0.01, -0.01, 0.02, 0.02, 0.02, 31.63, 0
203912, 203912616, -1.08, -0.01, -0.01, 0.02, 0.02, 0.02, 31.63, 0
203912, 203912616, -1.08, -0.01, -0.01, 0.02, 0.02, 0.02, 31.63, 0
203912, 203912616, -1.08, -0.01, -0.01, 0.02, 0.02, 0.02, 31.63, 0
203912, 203912616, -1.08, -0.01, -0.01, 0.02, 0.02, 0.02, 31.63, 0
203912, 203912616, -1.08, -0.01, -0.01, 0.02, 0.02, 0.02, 31.63, 0
203912, 203912616, -1.08, -0.01, -0.01, 0.02, 0.02, 0.02, 31.63, 0
203912, 203912616, -1.08, -0.01, -0.01, 0.02, 0.02, 0.02, 31.63, 0
203912, 203912616, -1.08, -0.01, -0.01, 0.02, 0.02, 0.02, 31.63, 0
203912, 203912616, -1.08, -0.01, -0.01, 0.02, 0.02, 0.02, 31.63, 0
203912, 203912616, -1.08, -0.01, -0.01, 0.02, 0.02, 0.02, 31.63, 0
203912, 203912616, -1.08, -0.01, -0.01, 0.02, 0.02, 0.02, 31.63, 0
203912, 203912616, -1.08, -0.01, -0.01, 0.02, 0.02, 0.02, 31.63, 0
203912, 203912616, -1.08, -0.01, -0.01, 0.02, 0.02, 0.02, 31.63, 0
203912, 203912616, -1.08, -0.01, -0.01, 0.02, 0.02, 0.02, 31.63, 0
203912, 203912616, -1.08, -0.01, -0.01, 0.02, 0.02, 0.02, 31.63, 0
203912, 203912616, -1.08, -0.01, -0.01, 0.02, 0.02, 0.02, 31.63, 0
203912, 203912616, -1.08, -0.01, -0.01, 0.02, 0.02, 0.02, 31.63, 0
203912, 203912616, -1.08, -0.01, -0.01, 0.02, 0.02, 0.02, 31.63, 0
203912, 203912616, -1.08, -0.01, -0.01, 0.02, 0.02, 0.02, 31.63, 0
203912, 203912616, -1.08, -0.01, -0.01, 0.02, 0.02, 0.02, 31.63, 0
203912, 203912616, -1.08, -0.01, -0.01, 0.02, 0.02, 0.02, 31.63, 0
203912, 203912616, -1.08, -0.01, -0.01, 0.02, 0.02, 0.02, 31.63, 0
211481, 211481613, -1.02, -0.01, -0.01, 0.0, 0.0, 0.0, 31.63, 0
211481, 211481613, -1.02, -0.01, -0.01, 0.0, 0.0, 0.0, 31.63, 0
211481, 211481613, -1.02, -0.01, -0.01, 0.0, 0.0, 0.0, 31.63, 0
211481, 211481613, -1.02, -0.01, -0.01, 0.0, 0.0, 0.0, 31.63, 0
211481, 211481613, -1.02, -0.01, -0.01, 0.0, 0.0, 0.0, 31.63, 0
211481, 211481613, -1.02, -0.01, -0.01, 0.0, 0.0, 0.0, 31.63, 0
211481, 211481613, -1.02, -0.01, -0.01, 0.0, 0.0, 0.0, 31.63, 0
211481, 211481613, -1.02, -0.01, -0.01, 0.0, 0.0, 0.0, 31.63, 0
211481, 211481613, -1.02, -0.01, -0.01, 0.0, 0.0, 0.0, 31.63, 0
211481, 211481613, -1.02, -0.01, -0.01, 0.0, 0.0, 0.0, 31.63, 0
211481, 211481613, -1.02, -0.01, -0.01, 0.0, 0.0, 0.0, 31.63, 0
211481, 211481613, -1.02, -0.01, -0.01, 0.0, 0.0, 0.0, 31.63, 0
211481, 211481613, -1.02, -0.01, -0.01, 0.0, 0.0, 0.0, 31.63, 0
211481, 211481613, -1.02, -0.01, -0.01, 0.0, 0.0, 0.0, 31.63, 0
211481, 211481613, -1.02, -0.01, -0.01, 0.0, 0.0, 0.0, 31.63, 0
211481, 211481613, -1.02, -0.01, -0.01, 0.0, 0.0, 0.0, 31.63, 0
211481, 211481613, -1.02, -0.01, -0.01, 0.0, 0.0, 0.0, 31.63, 0
211481, 211481613, -1.02, -0.01, -0.01, 0.0, 0.0, 0.0, 31.63, 0
211481, 211481613, -1.02, -0.01, -0.01, 0.0, 0.0, 0.0, 31.63, 0
211481, 211481613, -1.02, -0.01, -0.01, 0.0, 0.0, 0.0, 31.63, 0
211481, 211481613, -1.02, -0.01, -0.01, 0.0, 0.0, 0.0, 31.63, 0
211481, 211481613, -1.02, -0.01, -0.01, 0.0, 0.0, 0.0, 31.63, 0
211481, 211481613, -1.02, -0.01, -0.01, 0.0, 0.0, 0.0, 31.63, 0
211481, 211481613, -1.02, -0.01, -0.01, 0.0, 0.0, 0.0, 31.63, 0
211481, 211481613, -1.02, -0.01, -0.01, 0.0, 0.0, 0.0, 31.63, 0
211481, 211481613, -1.02, -0.01, -0.01, 0.0, 0.0, 0.0, 31.63, 0
211481, 211481613, -1.02, -0.01, -0.01, 0.0, 0.0, 0.0, 31.63, 0
211481, 211481613, -1.02, -0.01, -0.01, 0.0, 0.0, 0.0, 31.63, 0
211481, 211481613, -1.02, -0.01, -0.01, 0.0, 0.0, 0.0, 31.63, 0
211481, 211481613, -1.02, -0.01, -0.01, 0.0, 0.0, 0.0, 31.63, 0
211481, 211481613, -1.02, -0.01, -0.01, 0.0, 0.0, 0.0, 31.63, 0
211481, 211481613, -1.02, -0.01, -0.01, 0.0, 0.0, 0.0, 31.63, 0
211481, 211481613, -1.02, -0.01, -0.01, 0.0, 0.0, 0.0, 31.63, 0
211481, 211481613, -1.02, -0.01, -0.01, 0.0, 0.0, 0.0, 31.63, 0
211481, 211481613, -1.02, -0.01, -0.01, 0.0, 0.0, 0.0, 31.63, 0
219049, 219049613, -1.07, -0.01, -0.01, 0.03, 0.03, 0.03, 31.58, 0
219049, 219049613, -1.07, -0.01, -0.01, 0.03, 0.03, 0.03, 31.58, 0
219049, 219049613, -1.07, -0.01, -0.01, 0.03, 0.03, 0.03, 31.58, 0
219049, 219049613, -1.07, -0.01, -0.01, 0.03, 0.03, 0.03, 31.58, 0
219049, 219049613, -1.07, -0.01, -0.01, 0.03, 0.03, 0.03, 31.58, 0
219049, 219049613, -1.07, -0.01, -0.01, 0.03, 0.03, 0.03, 31.58, 0
219049, 219049613, -1.07, -0.01, -0.01, 0.03, 0.03, 0.03, 31.58, 0
219049, 219049613, -1.07, -0.01, -0.01, 0.03, 0.03, 0.03, 31.58, 0
219049, 219049613, -1.07, -0.01, -0.01, 0.03, 0.03, 0.03, 31.58, 0
219049, 219049613, -1.07, -0.01, -0.01, 0.03, 0.03, 0.03, 31.58, 0
219049, 219049613, -1.07, -0.01, -0.01, 0.03, 0.03, 0.03, 31.58, 0
219049, 219049613, -1.07, -0.01, -0.01, 0.03, 0.03, 0.03, 31.58, 0
219049, 219049613, -1.07, -0.01, -0.01, 0.03, 0.03, 0.03, 31.58, 0
219049, 219049613, -1.07, -0.01, -0.01, 0.03, 0.03, 0.03, 31.58, 0
219049, 219049613, -1.07, -0.01, -0.01, 0.03, 0.03, 0.03, 31.58, 0
219049, 219049613, -1.07, -0.01, -0.01, 0.03, 0.03, 0.03, 31.58, 0
219049, 219049613, -1.07, -0.01, -0.01, 0.03, 0.03, 0.03, 31.58, 0
219049, 219049613, -1.07, -0.01, -0.01, 0.03, 0.03, 0.03, 31.58, 0
219049, 219049613, -1.07, -0.01, -0.01, 0.03, 0.03, 0.03, 31.58, 0
219049, 219049613, -1.07, -0.01, -0.01, 0.03, 0.03, 0.03, 31.58, 0
219049, 219049613, -1.07, -0.01, -0.01, 0.03, 0.03, 0.03, 31.58, 0
219049, 219049613, -1.07, -0.01, -0.01, 0.03, 0.03, 0.03, 31.58, 0
219049, 219049613, -1.07, -0.01, -0.01, 0.03, 0.03, 0.03, 31.58, 0
219049, 219049613, -1.07, -0.01, -0.01, 0.03, 0.03, 0.03, 31.58, 0
219049, 219049613, -1.07, -0.01, -0.01, 0.03, 0.03, 0.03, 31.58, 0
219049, 219049613, -1.07, -0.01, -0.01, 0.03, 0.03, 0.03, 31.58, 0
219049, 219049613, -1.07, -0.01, -0.01, 0.03, 0.03, 0.03, 31.58, 0
219049, 219049613, -1.07, -0.01, -0.01, 0.03, 0.03, 0.03, 31.58, 0
219049, 219049613, -1.07, -0.01, -0.01, 0.03, 0.03, 0.03, 31.58, 0
219049, 219049613, -1.07, -0.01, -0.01, 0.03, 0.03, 0.03, 31.58, 0
219049, 219049613, -1.07, -0.01, -0.01, 0.03, 0.03, 0.03, 31.58, 0
219049, 219049613, -1.07, -0.01, -0.01, 0.03, 0.03, 0.03, 31.58, 0
219049, 219049613, -1.07, -0.01, -0.01, 0.03, 0.03, 0.03, 31.58, 0
219049, 219049613, -1.07, -0.01, -0.01, 0.03, 0.03, 0.03, 31.58, 0
219049, 219049613, -1.07, -0.01, -0.01, 0.03, 0.03, 0.03, 31.58, 0
226616, 226616613, -1.03, -0.01, -0.01, 0.03, 0.03, 0.03, 31.73, 0
226616, 226616613, -1.03, -0.01, -0.01, 0.03, 0.03, 0.03, 31.73, 0
226616, 226616613, -1.03, -0.01, -0.01, 0.03, 0.03, 0.03, 31.73, 0
226616, 226616613, -1.03, -0.01, -0.01, 0.03, 0.03, 0.03, 31.73, 0
226616, 226616613, -1.03, -0.01, -0.01, 0.03, 0.03, 0.03, 31.73, 0
226616, 226616613, -1.03, -0.01, -0.01, 0.03, 0.03, 0.03, 31.73, 0
226616, 226616613, -1.03, -0.01, -0.01, 0.03, 0.03, 0.03, 31.73, 0
226616, 226616613, -1.03, -0.01, -0.01, 0.03, 0.03, 0.03, 31.73, 0
226616, 226616613, -103, -369, 168, -6, -1, 3, 3149029, 1
226616, 226616613, -1.03, -0.01, -0.01, 0.03, 0.03, 0.03, 31.73, 0
226616, 226616613, -1.03, -0.01, -0.01, 0.03, 0.03, 0.03, 31.73, 0
226616, 226616613, -1.03, -0.01, -0.01, 0.03, 0.03, 0.03, 31.73, 0
226616, 226616613, -1.03, -0.01, -0.01, 0.03, 0.03, 0.03, 31.73, 0
226616, 226616613, -1.03, -0.01, -0.01, 0.03, 0.03, 0.03, 31.73, 0
226616, 226616613, -1.03, -0.01, -0.01, 0.03, 0.03, 0.03, 31.73, 0
226616, 226616613, -1.03, -0.01, -0.01, 0.03, 0.03, 0.03, 31.73, 0
226616, 226616613, -1.03, -0.01, -0.01, 0.03, 0.03, 0.03, 31.73, 0
226616, 226616613, -1.03, -0.01, -0.01, 0.03, 0.03, 0.03, 31.73, 0
226616, 226616613, -1.03, -0.01, -0.01, 0.03, 0.03, 0.03, 31.73, 0
226616, 226616613, -1.03, -0.01, -0.01, 0.03, 0.03, 0.03, 31.73, 0
226616, 226616613, -1.03, -0.01, -0.01, 0.03, 0.03, 0.03, 31.73, 0
226616, 226616613, -1.03, -0.01, -0.01, 0.03, 0.03, 0.03, 31.73, 0
226616, 226616613, -1.03, -0.01, -0.01, 0.03, 0.03, 0.03, 31.73, 0
226616, 226616613, -1.03, -0.01, -0.01, 0.03, 0.03, 0.03, 31.73, 0
226616, 226616613, -1.03, -0.01, -0.01, 0.03, 0.03, 0.03, 31.73, 0
226616, 226616613, -1.03, -0.01, -0.01, 0.03, 0.03, 0.03, 31.73, 0
226616, 226616613, -1.03, -0.01, -0.01, 0.03, 0.03, 0.03, 31.73, 0
226616, 226616613, -1.03, -0.01, -0.01, 0.03, 0.03, 0.03, 31.73, 0
226616, 226616613, -1.03, -0.01, -0.01, 0.03, 0.03, 0.03, 31.73, 0
226616, 226616613, -1.03, -0.01, -0.01, 0.03, 0.03, 0.03, 31.73, 0
226616, 226616613, -1.03, -0.01, -0.01, 0.03, 0.03, 0.03, 31.73, 0
226616, 226616613, -1.03, -0.01, -0.01, 0.03, 0.03, 0.03, 31.73, 0
226616, 226616613, -103, -369, 168, -6, -1, 3, 3173, 1
226616, 226616613, -1.03, -0.01, -0.01, 0.03, 0.03, 0.03, 31.73, 0
226616, 226616613, -1.03, -0.01, -0.01, 0.03, 0.03, 0.03, 31.73, 0
234186, 234186613, -1.07, -0.01, -0.01, 0.03, 0.03, 0.03, 31.77, 0
234186, 234186613, -1.07, -0.01, -0.01, 0.03, 0.03, 0.03, 31.77, 0
234186, 234186613, -1.07, -0.01, -0.01, 0.03, 0.03, 0.03, 31.77, 0
234186, 234186613, -1.07, -0.01, -0.01, 0.03, 0.03, 0.03, 31.77, 0
234186, 234186613, -1.07, -0.01, -0.01, 0.03, 0.03, 0.03, 31.77, 0
234186, 234186613, -1.07, -0.01, -0.01, 0.03, 0.03, 0.03, 31.77, 0
234186, 234186613, -1.07, -0.01, -0.01, 0.03, 0.03, 0.03, 31.77, 0
234186, 234186613, -1.07, -0.01, -0.01, 0.03, 0.03, 0.03, 31.77, 0
234186, 234186613, -1.07, -0.01, -0.01, 0.03, 0.03, 0.03, 31.77, 0
234186, 234186613, -1.07, -0.01, -0.01, 0.03, 0.03, 0.03, 31.77, 0
234186, 234186613, -1.07, -0.01, -0.01, 0.03, 0.03, 0.03, 31.77, 0
234186, 234186613, -1.07, -0.01, -0.01, 0.03, 0.03, 0.03, 31.77, 0
234186, 234186613, -1.07, -0.01, -0.01, 0.03, 0.03, 0.03, 31.77, 0
234186, 234186613, -1.07, -0.01, -0.01, 0.03, 0.03, 0.03, 31.77, 0
234186, 234186613, -1.07, -0.01, -0.01, 0.03, 0.03, 0.03, 31.77, 0
234186, 234186613, -1.07, -0.01, -0.01, 0.03, 0.03, 0.03, 31.77, 0
234186, 234186613, -1.07, -0.01, -0.01, 0.03, 0.03, 0.03, 31.77, 0
234186, 234186613, -1.07, -0.01, -0.01, 0.03, 0.03, 0.03, 31.77, 0
234186, 234186613, -1.07, -0.01, -0.01, 0.03, 0.03, 0.03, 31.77, 0
234186, 234186613, -1.07, -0.01, -0.01, 0.03, 0.03, 0.03, 31.77, 0
234186, 234186613, -1.07, -0.01, -0.01, 0.03, 0.03, 0.03, 31.77, 0
234186, 234186613, -1.07, -0.01, -0.01, 0.03, 0.03, 0.03, 31.77, 0
234186, 234186613, -1.07, -0.01, -0.01, 0.03, 0.03, 0.03, 31.77, 0
234186, 234186613, -1.07, -0.01, -0.01, 0.03, 0.03, 0.03, 31.77, 0
234186, 234186613, -1.07, -0.01, -0.01, 0.03, 0.03, 0.03, 31.77, 0
234186, 234186613, -1.07, -0.01, -0.01, 0.03, 0.03, 0.03, 31.77, 0
234186, 234186613, -1.07, -0.01, -0.01, 0.03, 0.03, 0.03, 31.77, 0
234186, 234186613, -1.07, -0.01, -0.01, 0.03, 0.03, 0.03, 31.77, 0
234186, 234186613, -1.07, -0.01, -0.01, 0.03, 0.03, 0.03, 31.77, 0
234186, 234186613, -1.07, -0.01, -0.01, 0.03, 0.03, 0.03, 31.77, 0
234186, 234186613, -1.07, -0.01, -0.01, 0.03, 0.03, 0.03, 31.77, 0
234186, 234186613, -1.07, -0.01, -0.01, 0.03, 0.03, 0.03, 31.77, 0
234186, 234186613, -1.07, -0.01, -0.01, 0.03, 0.03, 0.03, 31.77, 0
234186, 234186613, -1.07, -0.01, -0.01, 0.03, 0.03, 0.03, 31.77, 0
234186, 234186613, -1.07, -0.01, -0.01, 0.03, 0.03, 0.03, 31.77, 0
234186, 234186613, -1.07, -0.01, -0.01, 0.03, 0.03, 0.03, 31.77, 0
234186, 234186613, -1.07, -0.01, -0.01, 0.03, 0.03, 0.03, 31.77, 0
234186, 234186613, -1.07, -0.01, -0.01, 0.03, 0.03, 0.03, 31.77, 0
234186, 234186613, -1.07, -0.01, -0.01, 0.03, 0.03, 0.03, 31.77, 0
234186, 234186613, -1.07, -0.01, -0.01, 0.03, 0.03, 0.03, 31.77, 0
242855, 242855612, -1.17, -0.01, -0.01, 0.03, 0.03, 0.03, 31.68, 0
242855, 242855612, -1.17, -0.01, -0.01, 0.03, 0.03, 0.03, 31.68, 0
242855, 242855612, -1.17, -0.01, -0.01, 0.03, 0.03, 0.03, 31.68, 0
242855, 242855612, -1.17, -0.01, -0.01, 0.03, 0.03, 0.03, 31.68, 0
242855, 242855612, -1.17, -0.01, -0.01, 0.03, 0.03, 0.03, 31.68, 0
242855, 242855612, -1.17, -0.01, -0.01, 0.03, 0.03, 0.03, 31.68, 0
242855, 242855612, -1.17, -0.01, -0.01, 0.03, 0.03, 0.03, 31.68, 0
242855, 242855612, -1.17, -0.01, -0.01, 0.03, 0.03, 0.03, 31.68, 0
242855, 242855612, -1.17, -0.01, -0.01, 0.03, 0.03, 0.03, 31.68, 0
242855, 242855612, -1.17, -0.01, -0.01, 0.03, 0.03, 0.03, 31.68, 0
242855, 242855612, -1.17, -0.01, -0.01, 0.03, 0.03, 0.03, 31.68, 0
242855, 242855612, -1.17, -0.01, -0.01, 0.03, 0.03, 0.03, 31.68, 0
242855, 242855612, -1.17, -0.01, -0.01, 0.03, 0.03, 0.03, 31.68, 0
242855, 242855612, -1.17, -0.01, -0.01, 0.03, 0.03, 0.03, 31.68, 0
242855, 242855612, -1.17, -0.01, -0.01, 0.03, 0.03, 0.03, 31.68, 0
242855, 242855612, -1.17, -0.01, -0.01, 0.03, 0.03, 0.03, 31.68, 0
242855, 242855612, -1.17, -0.01, -0.01, 0.03, 0.03, 0.03, 31.68, 0
242855, 242855612, -1.17, -0.01, -0.01, 0.03, 0.03, 0.03, 31.68, 0
242855, 242855612, -1.17, -0.01, -0.01, 0.03, 0.03, 0.03, 31.68, 0
242855, 242855612, -1.17, -0.01, -0.01, 0.03, 0.03, 0.03, 31.68, 0
242855, 242855612, -1.17, -0.01, -0.01, 0.03, 0.03, 0.03, 31.68, 0
242855, 242855612, -1.17, -0.01, -0.01, 0.03, 0.03, 0.03, 31.68, 0
242855, 242855612, -1.17, -0.01, -0.01, 0.03, 0.03, 0.03, 31.68, 0
242855, 242855612, -1.17, -0.01, -0.01, 0.03, 0.03, 0.03, 31.68, 0
242855, 242855612, -1.17, -0.01, -0.01, 0.03, 0.03, 0.03, 31.68, 0
242855, 242855612, -1.17, -0.01, -0.01, 0.03, 0.03, 0.03, 31.68, 0
242855, 242855612, -1.17, -0.01, -0.01, 0.03, 0.03, 0.03, 31.68, 0
242855, 242855612, -1.17, -0.01, -0.01, 0.03, 0.03, 0.03, 31.68, 0
242855, 242855612, -1.17, -0.01, -0.01, 0.03, 0.03, 0.03, 31.68, 0
242855, 242855612, -1.17, -0.01, -0.01, 0.03, 0.03, 0.03, 31.68, 0
242855, 242855612, -1.17, -0.01, -0.01, 0.03, 0.03, 0.03, 31.68, 0
242855, 242855612, -1.17, -0.01, -0.01, 0.03, 0.03, 0.03, 31.68, 0
242855, 242855612, -1.17, -0.01, -0.01, 0.03, 0.03, 0.03, 31.68, 0
242855, 242855612, -1.17, -0.01, -0.01, 0.03, 0.03, 0.03, 31.68, 0
242855, 242855612, -1.17, -0.01, -0.01, 0.03, 0.03, 0.03, 31.68, 0
242855, 242855612, -1.17, -0.01, -0.01, 0.03, 0.03, 0.03, 31.68, 0
242855, 242855612, -1.17, -0.01, -0.01, 0.03, 0.03, 0.03, 31.68, 0
242855, 242855612, -1.17, -0.01, -0.01, 0.03, 0.03, 0.03, 31.68, 0
242855, 242855612, -1.17, -0.01, -0.01, 0.03, 0.03, 0.03, 31.68, 0
0, 0, 0.0, 0.0, 0.0, 0.0, 0.0, 0.0, 0.0, 0
251525, 251525609, -1.09, -0.01, -0.01, 0.0, 0.0, 0.0, 31.82, 0
251525, 251525609, -1.09, -0.01, -0.01, 0.0, 0.0, 0.0, 31.82, 0
251525, 251525609, -1.09, -0.01, -0.01, 0.0, 0.0, 0.0, 31.82, 0
251525, 251525609, -1.09, -0.01, -0.01, 0.0, 0.0, 0.0, 31.82, 0
251525, 251525609, -1.09, -0.01, -0.01, 0.0, 0.0, 0.0, 31.82, 0
251525, 251525609, -1.09, -0.01, -0.01, 0.0, 0.0, 0.0, 31.82, 0
251525, 251525609, -1.09, -0.01, -0.01, 0.0, 0.0, 0.0, 31.82, 0
251525, 251525609, -1.09, -0.01, -0.01, 0.0, 0.0, 0.0, 31.82, 0
251525, 251525609, -1.09, -0.01, -0.01, 0.0, 0.0, 0.0, 31.82, 0
251525, 251525609, -1.09, -0.01, -0.01, 0.0, 0.0, 0.0, 31.82, 0
251525, 251525609, -1.09, -0.01, -0.01, 0.0, 0.0, 0.0, 31.82, 0
251525, 251525609, -1.09, -0.01, -0.01, 0.0, 0.0, 0.0, 31.82, 0
251525, 251525609, -1.09, -0.01, -0.01, 0.0, 0.0, 0.0, 31.82, 0
251525, 251525609, -1.09, -0.01, -0.01, 0.0, 0.0, 0.0, 31.82, 0
251525, 251525609, -1.09, -0.01, -0.01, 0.0, 0.0, 0.0, 31.82, 0
251525, 251525609, -1.09, -0.01, -0.01, 0.0, 0.0, 0.0, 31.82, 0
251525, 251525609, -1.09, -0.01, -0.01, 0.0, 0.0, 0.0, 31.82, 0
251525, 251525609, -1.09, -0.01, -0.01, 0.0, 0.0, 0.0, 31.82, 0
251525, 251525609, -1.09, -0.01, -0.01, 0.0, 0.0, 0.0, 31.82, 0
251525, 251525609, -1.09, -0.01, -0.01, 0.0, 0.0, 0.0, 31.82, 0
251525, 251525609, -1.09, -0.01, -0.01, 0.0, 0.0, 0.0, 31.82, 0
251525, 251525609, -1.09, -0.01, -0.01, 0.0, 0.0, 0.0, 31.82, 0
251525, 251525609, -1.09, -0.01, -0.01, 0.0, 0.0, 0.0, 31.82, 0
251525, 251525609, -1.09, -0.01, -0.01, 0.0, 0.0, 0.0, 31.82, 0
251525, 251525609, -1.09, -0.01, -0.01, 0.0, 0.0, 0.0, 31.82, 0
251525, 251525609, -1.09, -0.01, -0.01, 0.0, 0.0, 0.0, 31.82, 0
251525, 251525609, -1.09, -0.01, -0.01, 0.0, 0.0, 0.0, 31.82, 0
251525, 251525609, -1.09, -0.01, -0.01, 0.0, 0.0, 0.0, 31.82, 0
251525, 251525609, -1.09, -0.01, -0.01, 0.0, 0.0, 0.0, 31.82, 0
251525, 251525609, -1.09, -0.01, -0.01, 0.0, 0.0, 0.0, 31.82, 0
251525, 251525609, -1.09, -0.01, -0.01, 0.0, 0.0, 0.0, 31.82, 0
251525, 251525609, -1.09, -0.01, -0.01, 0.0, 0.0, 0.0, 31.82, 0
251525, 251525609, -1.09, -0.01, -0.01, 0.0, 0.0, 0.0, 31.82, 0
251525, 251525609, -1.09, -0.01, -0.01, 0.0, 0.0, 0.0, 31.82, 0
259094, 259094611, -1.09, -0.01, -0.01, -0.02, -0.02, -0.02, 31.77, 0
259094, 259094611, -1.09, -0.01, -0.01, -0.02, -0.02, -0.02, 31.77, 0
259094, 259094611, -1.09, -0.01, -0.01, -0.02, -0.02, -0.02, 31.77, 0
259094, 259094611, -1.09, -0.01, -0.01, -0.02, -0.02, -0.02, 31.77, 0
259094, 259094611, -1.09, -0.01, -0.01, -0.02, -0.02, -0.02, 31.77, 0
259094, 259094611, -1.09, -0.01, -0.01, -0.02, -0.02, -0.02, 31.77, 0
259094, 259094611, -1.09, -0.01, -0.01, -0.02, -0.02, -0.02, 31.77, 0
259094, 259094611, -1.09, -0.01, -0.01, -0.02, -0.02, -0.02, 31.77, 0
259094, 259094611, -1.09, -0.01, -0.01, -0.02, -0.02, -0.02, 31.77, 0
259094, 259094611, -1.09, -0.01, -0.01, -0.02, -0.02, -0.02, 31.77, 0
259094, 259094611, -1.09, -0.01, -0.01, -0.02, -0.02, -0.02, 31.77, 0
259094, 259094611, -1.09, -0.01, -0.01, -0.02, -0.02, -0.02, 31.77, 0
259094, 259094611, -1.09, -0.01, -0.01, -0.02, -0.02, -0.02, 31.77, 0
259094, 259094611, -1.09, -0.01, -0.01, -0.02, -0.02, -0.02, 31.77, 0
259094, 259094611, -1.09, -0.01, -0.01, -0.02, -0.02, -0.02, 31.77, 0
259094, 259094611, -1.09, -0.01, -0.01, -0.02, -0.02, -0.02, 31.77, 0
259094, 259094611, -1.09, -0.01, -0.01, -0.02, -0.02, -0.02, 31.77, 0
259094, 259094611, -1.09, -0.01, -0.01, -0.02, -0.02, -0.02, 31.77, 0
259094, 259094611, -1.09, -0.01, -0.01, -0.02, -0.02, -0.02, 31.77, 0
259094, 259094611, -1.09, -0.01, -0.01, -0.02, -0.02, -0.02, 31.77, 0
259094, 259094611, -1.09, -0.01, -0.01, -0.02, -0.02, -0.02, 31.77, 0
259094, 259094611, -1.09, -0.01, -0.01, -0.02, -0.02, -0.02, 31.77, 0
259094, 259094611, -1.09, -0.01, -0.01, -0.02, -0.02, -0.02, 31.77, 0
259094, 259094611, -1.09, -0.01, -0.01, -0.02, -0.02, -0.02, 31.77, 0
259094, 259094611, -1.09, -0.01, -0.01, -0.02, -0.02, -0.02, 31.77, 0
259094, 259094611, -1.09, -0.01, -0.01, -0.02, -0.02, -0.02, 31.77, 0
259094, 259094611, -1.09, -0.01, -0.01, -0.02, -0.02, -0.02, 31.77, 0
259094, 259094611, -1.09, -0.01, -0.01, -0.02, -0.02, -0.02, 31.77, 0
259094, 259094611, -1.09, -0.01, -0.01, -0.02, -0.02, -0.02, 31.77, 0
259094, 259094611, -1.09, -0.01, -0.01, -0.02, -0.02, -0.02, 31.77, 0
259094, 259094611, -1.09, -0.01, -0.01, -0.02, -0.02, -0.02, 31.77, 0
259094, 259094611, -1.09, -0.01, -0.01, -0.02, -0.02, -0.02, 31.77, 0
259094, 259094611, -1.09, -0.01, -0.01, -0.02, -0.02, -0.02, 31.77, 0
259094, 259094611, -1.09, -0.01, -0.01, -0.02, -0.02, -0.02, 31.77, 0
259094, 259094611, -1.09, -0.01, -0.01, -0.02, -0.02, -0.02, 31.77, 0
266663, 266663611, -1.09, -0.01, -0.01, 0.03, 0.03, 0.03, 31.77, 0
266663, 266663611, -1.09, -0.01, -0.01, 0.03, 0.03, 0.03, 31.77, 0
266663, 266663611, -1.09, -0.01, -0.01, 0.03, 0.03, 0.03, 31.77, 0
266663, 266663611, -1.09, -0.01, -0.01, 0.03, 0.03, 0.03, 31.77, 0
266663, 266663611, -1.09, -0.01, -0.01, 0.03, 0.03, 0.03, 31.77, 0
266663, 266663611, -1.09, -0.01, -0.01, 0.03, 0.03, 0.03, 31.77, 0
266663, 266663611, -1.09, -0.01, -0.01, 0.03, 0.03, 0.03, 31.77, 0
266663, 266663611, -1.09, -0.01, -0.01, 0.03, 0.03, 0.03, 31.77, 0
266663, 266663611, -1.09, -0.01, -0.01, 0.03, 0.03, 0.03, 31.77, 0
266663, 266663611, -1.09, -0.01, -0.01, 0.03, 0.03, 0.03, 31.77, 0
266663, 266663611, -1.09, -0.01, -0.01, 0.03, 0.03, 0.03, 31.77, 0
266663, 266663611, -1.09, -0.01, -0.01, 0.03, 0.03, 0.03, 31.77, 0
266663, 266663611, -1.09, -0.01, -0.01, 0.03, 0.03, 0.03, 31.77, 0
266663, 266663611, -1.09, -0.01, -0.01, 0.03, 0.03, 0.03, 31.77, 0
266663, 266663611, -1.09, -0.01, -0.01, 0.03, 0.03, 0.03, 31.77, 0
266663, 266663611, -1.09, -0.01, -0.01, 0.03, 0.03, 0.03, 31.77, 0
266663, 266663611, -1.09, -0.01, -0.01, 0.03, 0.03, 0.03, 31.77, 0
266663, 266663611, -1.09, -0.01, -0.01, 0.03, 0.03, 0.03, 31.77, 0
266663, 266663611, -1.09, -0.01, -0.01, 0.03, 0.03, 0.03, 31.77, 0
266663, 266663611, -1.09, -0.01, -0.01, 0.03, 0.03, 0.03, 31.77, 0
266663, 266663611, -1.09, -0.01, -0.01, 0.03, 0.03, 0.03, 31.77, 0
266663, 266663611, -1.09, -0.01, -0.01, 0.03, 0.03, 0.03, 31.77, 0
266663, 266663611, -1.09, -0.01, -0.01, 0.03, 0.03, 0.03, 31.77, 0
266663, 266663611, -1.09, -0.01, -0.01, 0.03, 0.03, 0.03, 31.77, 0
266663, 266663611, -1.09, -0.01, -0.01, 0.03, 0.03, 0.03, 31.77, 0
266663, 266663611, -1.09, -0.01, -0.01, 0.03, 0.03, 0.03, 31.77, 0
266663, 266663611, -1.09, -0.01, -0.01, 0.03, 0.03, 0.03, 31.77, 0
266663, 266663611, -1.09, -0.01, -0.01, 0.03, 0.03, 0.03, 31.77, 0
266663, 266663611, -1.09, -0.01, -0.01, 0.03, 0.03, 0.03, 31.77, 0
266663, 266663611, -1.09, -0.01, -0.01, 0.03, 0.03, 0.03, 31.77, 0
266663, 266663611, -1.09, -0.01, -0.01, 0.03, 0.03, 0.03, 31.77, 0
266663, 266663611, -1.09, -0.01, -0.01, 0.03, 0.03, 0.03, 31.77, 0
266663, 266663611, -1.09, -0.01, -0.01, 0.03, 0.03, 0.03, 31.77, 0
266663, 266663611, -1.09, -0.01, -0.01, 0.03, 0.03, 0.03, 31.77, 0
266663, 266663611, -1.09, -0.01, -0.01, 0.03, 0.03, 0.03, 31.77, 0
274228, 274228612, -1.09, -0.01, -0.01, 0.03, 0.03, 0.03, 31.82, 0
274228, 274228612, -1.09, -0.01, -0.01, 0.03, 0.03, 0.03, 31.82, 0
274228, 274228612, -1.09, -0.01, -0.01, 0.03, 0.03, 0.03, 31.82, 0
274228, 274228612, -1.09, -0.01, -0.01, 0.03, 0.03, 0.03, 31.82, 0
274228, 274228612, -1.09, -0.01, -0.01, 0.03, 0.03, 0.03, 31.82, 0
274228, 274228612, -1.09, -0.01, -0.01, 0.03, 0.03, 0.03, 31.82, 0
274228, 274228612, -1.09, -0.01, -0.01, 0.03, 0.03, 0.03, 31.82, 0
274228, 274228612, -1.09, -0.01, -0.01, 0.03, 0.03, 0.03, 31.82, 0
274228, 274228612, -1.09, -0.01, -0.01, 0.03, 0.03, 0.03, 31.82, 0
274228, 274228612, -1.09, -0.01, -0.01, 0.03, 0.03, 0.03, 31.82, 0
274228, 274228612, -1.09, -0.01, -0.01, 0.03, 0.03, 0.03, 31.82, 0
274228, 274228612, -1.09, -0.01, -0.01, 0.03, 0.03, 0.03, 31.82, 0
274228, 274228612, -1.09, -0.01, -0.01, 0.03, 0.03, 0.03, 31.82, 0
274228, 274228612, -1.09, -0.01, -0.01, 0.03, 0.03, 0.03, 31.82, 0
274228, 274228612, -1.09, -0.01, -0.01, 0.03, 0.03, 0.03, 31.82, 0
274228, 274228612, -1.09, -0.01, -0.01, 0.03, 0.03, 0.03, 31.82, 0
274228, 274228612, -1.09, -0.01, -0.01, 0.03, 0.03, 0.03, 31.82, 0
274228, 274228612, -1.09, -0.01, -0.01, 0.03, 0.03, 0.03, 31.82, 0
274228, 274228612, -1.09, -0.01, -0.01, 0.03, 0.03, 0.03, 31.82, 0
274228, 274228612, -1.09, -0.01, -0.01, 0.03, 0.03, 0.03, 31.82, 0
274228, 274228612, -1.09, -0.01, -0.01, 0.03, 0.03, 0.03, 31.82, 0
274228, 274228612, -1.09, -0.01, -0.01, 0.03, 0.03, 0.03, 31.82, 0
274228, 274228612, -1.09, -0.01, -0.01, 0.03, 0.03, 0.03, 31.82, 0
274228, 274228612, -1.09, -0.01, -0.01, 0.03, 0.03, 0.03, 31.82, 0
274228, 274228612, -1.09, -0.01, -0.01, 0.03, 0.03, 0.03, 31.82, 0
274228, 274228612, -1.09, -0.01, -0.01, 0.03, 0.03, 0.03, 31.82, 0
274228, 274228612, -1.09, -0.01, -0.01, 0.03, 0.03, 0.03, 31.82, 0
274228, 274228612, -1.09, -0.01, -0.01, 0.03, 0.03, 0.03, 31.82, 0
274228, 274228612, -1.09, -0.01, -0.01, 0.03, 0.03, 0.03, 31.82, 0
274228, 274228612, -1.09, -0.01, -0.01, 0.03, 0.03, 0.03, 31.82, 0
274228, 274228612, -1.09, -0.01, -0.01, 0.03, 0.03, 0.03, 31.82, 0
274228, 274228612, -1.09, -0.01, -0.01, 0.03, 0.03, 0.03, 31.82, 0
274228, 274228612, -1.09, -0.01, -0.01, 0.03, 0.03, 0.03, 31.82, 0
274228, 274228612, -1.09, -0.01, -0.01, 0.03, 0.03, 0.03, 31.82, 0
274228, 274228612, -1.09, -0.01, -0.01, 0.03, 0.03, 0.03, 31.82, 0
274228, 274228612, -1.09, -0.01, -0.01, 0.03, 0.03, 0.03, 31.82, 0
274228, 274228612, -1.09, -0.01, -0.01, 0.03, 0.03, 0.03, 31.82, 0
274228, 274228612, -1.09, -0.01, -0.01, 0.03, 0.03, 0.03, 31.82, 0
274228, 274228612, -1.09, -0.01, -0.01, 0.03, 0.03, 0.03, 31.82, 0
274228, 274228612, -1.09, -0.01, -0.01, 0.03, 0.03, 0.03, 31.82, 0
282898, 282898611, -1.03, -0.01, -0.01, 0.03, 0.03, 0.03, 31.91, 0
282898, 282898611, -1.03, -0.01, -0.01, 0.03, 0.03, 0.03, 31.91, 0
282898, 282898611, -1.03, -0.01, -0.01, 0.03, 0.03, 0.03, 31.91, 0
282898, 282898611, -1.03, -0.01, -0.01, 0.03, 0.03, 0.03, 31.91, 0
282898, 282898611, -1.03, -0.01, -0.01, 0.03, 0.03, 0.03, 31.91, 0
282898, 282898611, -1.03, -0.01, -0.01, 0.03, 0.03, 0.03, 31.91, 0
282898, 282898611, -1.03, -0.01, -0.01, 0.03, 0.03, 0.03, 31.91, 0
282898, 282898611, -1.03, -0.01, -0.01, 0.03, 0.03, 0.03, 31.91, 0
282898, 282898611, -1.03, -0.01, -0.01, 0.03, 0.03, 0.03, 31.91, 0
282898, 282898611, -1.03, -0.01, -0.01, 0.03, 0.03, 0.03, 31.91, 0
282898, 282898611, -1.03, -0.01, -0.01, 0.03, 0.03, 0.03, 31.91, 0
282898, 282898611, -1.03, -0.01, -0.01, 0.03, 0.03, 0.03, 31.91, 0
282898, 282898611, -1.03, -0.01, -0.01, 0.03, 0.03, 0.03, 31.91, 0
282898, 282898611, -1.03, -0.01, -0.01, 0.03, 0.03, 0.03, 31.91, 0
282898, 282898611, -1.03, -0.01, -0.01, 0.03, 0.03, 0.03, 31.91, 0
282898, 282898611, -1.03, -0.01, -0.01, 0.03, 0.03, 0.03, 31.91, 0
282898, 282898611, -1.03, -0.01, -0.01, 0.03, 0.03, 0.03, 31.91, 0
282898, 282898611, -1.03, -0.01, -0.01, 0.03, 0.03, 0.03, 31.91, 0
282898, 282898611, -1.03, -0.01, -0.01, 0.03, 0.03, 0.03, 31.91, 0
282898, 282898611, -1.03, -0.01, -0.01, 0.03, 0.03, 0.03, 31.91, 0
282898, 282898611, -1.03, -0.01, -0.01, 0.03, 0.03, 0.03, 31.91, 0
282898, 282898611, -1.03, -0.01, -0.01, 0.03, 0.03, 0.03, 31.91, 0
282898, 282898611, -1.03, -0.01, -0.01, 0.03, 0.03, 0.03, 31.91, 0
282898, 282898611, -1.03, -0.01, -0.01, 0.03, 0.03, 0.03, 31.91, 0
282898, 282898611, -1.03, -0.01, -0.01, 0.03, 0.03, 0.03, 31.91, 0
282898, 282898611, -1.03, -0.01, -0.01, 0.03, 0.03, 0.03, 31.91, 0
282898, 282898611, -1.03, -0.01, -0.01, 0.03, 0.03, 0.03, 31.91, 0
282898, 282898611, -1.03, -0.01, -0.01, 0.03, 0.03, 0.03, 31.91, 0
282898, 282898611, -1.03, -0.01, -0.01, 0.03, 0.03, 0.03, 31.91, 0
282898, 282898611, -1.03, -0.01, -0.01, 0.03, 0.03, 0.03, 31.91, 0
282898, 282898611, -1.03, -0.01, -0.01, 0.03, 0.03, 0.03, 31.91, 0
282898, 282898611, -1.03, -0.01, -0.01, 0.03, 0.03, 0.03, 31.91, 0
282898, 282898611, -1.03, -0.01, -0.01, 0.03, 0.03, 0.03, 31.91, 0
282898, 282898611, -1.03, -0.01, -0.01, 0.03, 0.03, 0.03, 31.91, 0
282898, 282898611, -1.03, -0.01, -0.01, 0.03, 0.03, 0.03, 31.91, 0
290466, 285223731, -167772273, -374, 4194481, -6, -40964, 1610612741, 100666471, 1
290466, 290466611, -1.13, -0.01, -0.01, 0.03, 0.03, 0.03, 31.91, 0
290466, 290466611, -1.13, -0.01, -0.01, 0.03, 0.03, 0.03, 31.91, 0
290466, 290466611, -1.13, -0.01, -0.01, 0.03, 0.03, 0.03, 31.91, 0
290466, 290466611, -1.13, -0.01, -0.01, 0.03, 0.03, 0.03, 31.91, 0
290466, 290466611, -1.13, -0.01, -0.01, 0.03, 0.03, 0.03, 31.91, 0
290466, 290466611, -1.13, -0.01, -0.01, 0.03, 0.03, 0.03, 31.91, 0
290466, 290466611, -1.13, -0.01, -0.01, 0.03, 0.03, 0.03, 31.91, 0
290466, 290466611, -1.13, -0.01, -0.01, 0.03, 0.03, 0.03, 31.91, 0
290466, 290466611, -1.13, -0.01, -0.01, 0.03, 0.03, 0.03, 31.91, 0
290466, 290466611, -1.13, -0.01, -0.01, 0.03, 0.03, 0.03, 31.91, 0
290466, 290466611, -1.13, -0.01, -0.01, 0.03, 0.03, 0.03, 31.91, 0
290466, 290466611, -1.13, -0.01, -0.01, 0.03, 0.03, 0.03, 31.91, 0
290466, 290466611, -1.13, -0.01, -0.01, 0.03, 0.03, 0.03, 31.91, 0
290466, 290466611, -1.13, -0.01, -0.01, 0.03, 0.03, 0.03, 31.91, 0
290466, 290466611, -1.13, -0.01, -0.01, 0.03, 0.03, 0.03, 31.91, 0
290466, 290466611, -1.13, -0.01, -0.01, 0.03, 0.03, 0.03, 31.91, 0
290466, 290466611, -1.13, -0.01, -0.01, 0.03, 0.03, 0.03, 31.91, 0
290466, 290466611, -1.13, -0.01, -0.01, 0.03, 0.03, 0.03, 31.91, 0
290466, 290466611, -1.13, -0.01, -0.01, 0.03, 0.03, 0.03, 31.91, 0
290466, 290466611, -1.13, -0.01, -0.01, 0.03, 0.03, 0.03, 31.91, 0
290466, 290466611, -1.13, -0.01, -0.01, 0.03, 0.03, 0.03, 31.91, 0
290466, 290466611, -1.13, -0.01, -0.01, 0.03, 0.03, 0.03, 31.91, 0
290466, 290466611, -1.13, -0.01, -0.01, 0.03, 0.03, 0.03, 31.91, 0
290466, 290466611, -1.13, -0.01, -0.01, 0.03, 0.03, 0.03, 31.91, 0
290466, 290466611, -1.13, -0.01, -0.01, 0.03, 0.03, 0.03, 31.91, 0
290466, 290466611, -1.13, -0.01, -0.01, 0.03, 0.03, 0.03, 31.91, 0
290466, 290466611, -1.13, -0.01, -0.01, 0.03, 0.03, 0.03, 31.91, 0
290466, 290466611, -1.13, -0.01, -0.01, 0.03, 0.03, 0.03, 31.91, 0
290466, 290466611, -1.13, -0.01, -0.01, 0.03, 0.03, 0.03, 31.91, 0
290466, 290466611, -1.13, -0.01, -0.01, 0.03, 0.03, 0.03, 31.91, 0
290466, 290466611, -1.13, -0.01, -0.01, 0.03, 0.03, 0.03, 31.91, 0
290466, 290466611, -1.13, -0.01, -0.01, 0.03, 0.03, 0.03, 31.91, 0
290466, 290466611, -1.13, -0.01, -0.01, 0.03, 0.03, 0.03, 31.91, 0
290466, 290466611, -1.13, -0.01, -0.01, 0.03, 0.03, 0.03, 31.91, 0
298036, 298036612, -1.01, -0.01, -0.01, 0.03, 0.03, 0.03, 31.87, 0
298036, 298036612, -1.01, -0.01, -0.01, 0.03, 0.03, 0.03, 31.87, 0
298036, 298036612, -1.01, -0.01, -0.01, 0.03, 0.03, 0.03, 31.87, 0
298036, 298036612, -1.01, -0.01, -0.01, 0.03, 0.03, 0.03, 31.87, 0
298036, 298036612, -1.01, -0.01, -0.01, 0.03, 0.03, 0.03, 31.87, 0
298036, 298036612, -1.01, -0.01, -0.01, 0.03, 0.03, 0.03, 31.87, 0
298036, 298036612, -1.01, -0.01, -0.01, 0.03, 0.03, 0.03, 31.87, 0
298036, 298036612, -1.01, -0.01, -0.01, 0.03, 0.03, 0.03, 31.87, 0
298036, 298036612, -1.01, -0.01, -0.01, 0.03, 0.03, 0.03, 31.87, 0
298036, 298036612, -1.01, -0.01, -0.01, 0.03, 0.03, 0.03, 31.87, 0
298036, 298036612, -1.01, -0.01, -0.01, 0.03, 0.03, 0.03, 31.87, 0
298036, 298036612, -1.01, -0.01, -0.01, 0.03, 0.03, 0.03, 31.87, 0
298036, 298036612, -1.01, -0.01, -0.01, 0.03, 0.03, 0.03, 31.87, 0
298036, 298036612, -1.01, -0.01, -0.01, 0.03, 0.03, 0.03, 31.87, 0
298036, 298036612, -1.01, -0.01, -0.01, 0.03, 0.03, 0.03, 31.87, 0
298036, 298036612, -1.01, -0.01, -0.01, 0.03, 0.03, 0.03, 31.87, 0
298036, 298036612, -1.01, -0.01, -0.01, 0.03, 0.03, 0.03, 31.87, 0
298036, 298036612, -1.01, -0.01, -0.01, 0.03, 0.03, 0.03, 31.87, 0
298036, 298036612, -1.01, -0.01, -0.01, 0.03, 0.03, 0.03, 31.87, 0
298036, 298036612, -1.01, -0.01, -0.01, 0.03, 0.03, 0.03, 31.87, 0
298036, 298036612, -1.01, -0.01, -0.01, 0.03, 0.03, 0.03, 31.87, 0
298036, 298036612, -1.01, -0.01, -0.01, 0.03, 0.03, 0.03, 31.87, 0
298036, 298036612, -1.01, -0.01, -0.01, 0.03, 0.03, 0.03, 31.87, 0
298036, 298036612, -1.01, -0.01, -0.01, 0.03, 0.03, 0.03, 31.87, 0
298036, 298036612, -1.01, -0.01, -0.01, 0.03, 0.03, 0.03, 31.87, 0
298036, 298036612, -1.01, -0.01, -0.01, 0.03, 0.03, 0.03, 31.87, 0
298036, 298036612, -1.01, -0.01, -0.01, 0.03, 0.03, 0.03, 31.87, 0
298036, 298036612, -1.01, -0.01, -0.01, 0.03, 0.03, 0.03, 31.87, 0
298036, 298036612, -1.01, -0.01, -0.01, 0.03, 0.03, 0.03, 31.87, 0
298036, 298036612, -1.01, -0.01, -0.01, 0.03, 0.03, 0.03, 31.87, 0
298036, 298036612, -1.01, -0.01, -0.01, 0.03, 0.03, 0.03, 31.87, 0
298036, 298036612, -1.01, -0.01, -0.01, 0.03, 0.03, 0.03, 31.87, 0
298036, 298036612, -1.01, -0.01, -0.01, 0.03, 0.03, 0.03, 31.87, 0
298036, 298036612, -1.01, -0.01, -0.01, 0.03, 0.03, 0.03, 31.87, 0
298036, 298036612, -1.01, -0.01, -0.01, 0.03, 0.03, 0.03, 31.87, 0
298036, 298036612, -1.01, -0.01, -0.01, 0.03, 0.03, 0.03, 31.87, 0
298036, 298036612, -1.01, -0.01, -0.01, 0.03, 0.03, 0.03, 31.87, 0
298036, 298036612, -1.01, -0.01, -0.01, 0.03, 0.03, 0.03, 31.87, 0
298036, 298036612, -1.01, -0.01, -0.01, 0.03, 0.03, 0.03, 31.87, 0
0, 0, 0.0, 0.0, 0.0, 0.0, 0.0, 0.0, 0.0, 0
306704, 306704764, -1.0, -0.01, -0.01, 0.02, 0.02, 0.02, 31.91, 0
306704, 306704764, -1.0, -0.01, -0.01, 0.02, 0.02, 0.02, 31.91, 0
306704, 306704764, -1.0, -0.01, -0.01, 0.02, 0.02, 0.02, 31.91, 0
306704, 306704764, -1.0, -0.01, -0.01, 0.02, 0.02, 0.02, 31.91, 0
306704, 306704764, -1.0, -0.01, -0.01, 0.02, 0.02, 0.02, 31.91, 0
306704, 306704764, -1.0, -0.01, -0.01, 0.02, 0.02, 0.02, 31.91, 0
306704, 306704764, -1.0, -0.01, -0.01, 0.02, 0.02, 0.02, 31.91, 0
306704, 306704764, -1.0, -0.01, -0.01, 0.02, 0.02, 0.02, 31.91, 0
306704, 306704764, -1.0, -0.01, -0.01, 0.02, 0.02, 0.02, 31.91, 0
306704, 306704764, -1.0, -0.01, -0.01, 0.02, 0.02, 0.02, 31.91, 0
306704, 306704764, -1.0, -0.01, -0.01, 0.02, 0.02, 0.02, 31.91, 0
306704, 306704764, -1.0, -0.01, -0.01, 0.02, 0.02, 0.02, 31.91, 0
306704, 306704764, -1.0, -0.01, -0.01, 0.02, 0.02, 0.02, 31.91, 0
306704, 306704764, -1.0, -0.01, -0.01, 0.02, 0.02, 0.02, 31.91, 0
306704, 306704764, -1.0, -0.01, -0.01, 0.02, 0.02, 0.02, 31.91, 0
306704, 306704764, -1.0, -0.01, -0.01, 0.02, 0.02, 0.02, 31.91, 0
306704, 306704764, -1.0, -0.01, -0.01, 0.02, 0.02, 0.02, 31.91, 0
306704, 306704764, -1.0, -0.01, -0.01, 0.02, 0.02, 0.02, 31.91, 0
306704, 306704764, -1.0, -0.01, -0.01, 0.02, 0.02, 0.02, 31.91, 0
306704, 306704764, -1.0, -0.01, -0.01, 0.02, 0.02, 0.02, 31.91, 0
306704, 306704764, -1.0, -0.01, -0.01, 0.02, 0.02, 0.02, 31.91, 0
306704, 306704764, -1.0, -0.01, -0.01, 0.02, 0.02, 0.02, 31.91, 0
306704, 306704764, -1.0, -0.01, -0.01, 0.02, 0.02, 0.02, 31.91, 0
306704, 306704764, -1.0, -0.01, -0.01, 0.02, 0.02, 0.02, 31.91, 0
306704, 306704764, -1.0, -0.01, -0.01, 0.02, 0.02, 0.02, 31.91, 0
306704, 306704764, -1.0, -0.01, -0.01, 0.02, 0.02, 0.02, 31.91, 0
306704, 306704764, -1.0, -0.01, -0.01, 0.02, 0.02, 0.02, 31.91, 0
0, 0, 0.0, 0.0, 0.0, 0.0, 0.0, 0.0, 0.0, 0
0, 0, 0.0, 0.0, 0.0, 0.0, 0.0, 0.0, 0.0, 0
0, 0, 0.0, 0.0, 0.0, 0.0, 0.0, 0.0, 0.0, 0
0, 0, 0.0, 0.0, 0.0, 0.0, 0.0, 0.0, 0.0, 0
0, 0, 0.0, 0.0, 0.0, 0.0, 0.0, 0.0, 0.0, 0
0, 0, 0.0, 0.0, 0.0, 0.0, 0.0, 0.0, 0.0, 0
0, 0, 0.0, 0.0, 0.0, 0.0, 0.0, 0.0, 0.0, 0
0, 0, 0.0, 0.0, 0.0, 0.0, 0.0, 0.0, 0.0, 0
0, 0, 0.0, 0.0, 0.0, 0.0, 0.0, 0.0, 0.0, 0
0, 0, 0.0, 0.0, 0.0, 0.0, 0.0, 0.0, 0.0, 0
2253, 2253611, -0.97, -0.01, -0.01, 0.03, 0.03, 0.03, 31.82, 0
0, 0, 0.0, 0.0, 0.0, 0.0, 0.0, 0.0, 0.0, 0
0, 0, 0.0, 0.0, 0.0, 0.0, 0.0, 0.0, 0.0, 0
0, 0, 0.0, 0.0, 0.0, 0.0, 0.0, 0.0, 0.0, 0
0, 0, 0.0, 0.0, 0.0, 0.0, 0.0, 0.0, 0.0, 0
0, 0, 0.0, 0.0, 0.0, 0.0, 0.0, 0.0, 0.0, 0
0, 0, 0.0, 0.0, 0.0, 0.0, 0.0, 0.0, 0.0, 0
0, 0, 0.0, 0.0, 0.0, 0.0, 0.0, 0.0, 0.0, 0
0, 0, 0.0, 0.0, 0.0, 0.0, 0.0, 0.0, 0.0, 0
0, 0, 0.0, 0.0, 0.0, 0.0, 0.0, 0.0, 0.0, 0
0, 0, 0.0, 0.0, 0.0, 0.0, 0.0, 0.0, 0.0, 0
0, 0, 0.0, 0.0, 0.0, 0.0, 0.0, 0.0, 0.0, 0
0, 0, 0.0, 0.0, 0.0, 0.0, 0.0, 0.0, 0.0, 0
0, 0, 0.0, 0.0, 0.0, 0.0, 0.0, 0.0, 0.0, 0
0, 0, 0.0, 0.0, 0.0, 0.0, 0.0, 0.0, 0.0, 0
0, 0, 0.0, 0.0, 0.0, 0.0, 0.0, 0.0, 0.0, 0
0, 0, 0.0, 0.0, 0.0, 0.0, 0.0, 0.0, 0.0, 0
0, 0, 0.0, 0.0, 0.0, 0.0, 0.0, 0.0, 0.0, 0
0, 0, 0.0, 0.0, 0.0, 0.0, 0.0, 0.0, 0.0, 0
