Time (ms), accX, accY, accZ, gyroX, gyroY, gyroZ, tempC, Packet Error
0, 0, 0, 0, 0, 0, 0, 0, 1
0, 0, 0, 0, 0, 0, 0, 0, 1
0, 0, 0, 0, 0, 0, 0, 0, 1
0, 0, 0, 0, 0, 0, 0, 0, 1
0, 0, 0, 0, 0, 0, 0, 0, 1
0, 0, 0, 0, 0, 0, 0, 0, 1
0, 0, 0, 0, 0, 0, 0, 0, 1
0, 0, 0, 0, 0, 0, 0, 0, 1
0, 0, 0, 0, 0, 0, 0, 0, 1
0, 0, 0, 0, 0, 0, 0, 0, 1
0, 0, 0, 0, 0, 0, 0, 0, 1
0, 0, 0, 0, 0, 0, 0, 0, 1
0, 0, 0, 0, 0, 0, 0, 0, 1
0, 0, 0, 0, 0, 0, 0, 0, 1
2903, 2903590, -1082, 2, -758, -6, -1, 3, 1
0, 0, 0, 0, 0, 0, 0, 0, 1
3335, 3335590, -1089, 2, -754, -5, -1, -6, 1
3551, 3551590, -1082, -2, -765, -5, -1, -7, 1
3764, 3764590, -1090, 4, -759, -5, -1, -18, 1
3982, 3982591, -1089, -1, -761, -6, -1, -16, 1
4198, 4198590, -1092, 0, -769, -6, -1, -19, 1
0, 0, 0, 0, 0, 0, 0, 0, 1
4742, 4742589, -1088, 10, -766, -6, 0, -15, 1
0, 0, 0, 0, 0, 0, 0, 0, 1
5179, 5179591, -1088, -9, -777, -5, -1, -15, 1
0, 0, 0, 0, 0, 0, 0, 0, 1
5613, 5613589, -1093, 6, -756, -5, -2, -19, 1
0, 0, 0, 0, 0, 0, 0, 0, 1
6047, 6047590, -1088, 5, -763, -5, -1, -22, 1
6338, 6338588, -1091, 1, -758, -5, -1, -17, 1
6480, 6480591, -1088, 2, -765, -5, 0, -13, 1
6696, 6696589, -1082, -5, -768, -5, -2, -16, 1
6910, 6910589, -1091, 5, -766, -5, -1, -9, 1
7127, 7127589, -1091, -4, -764, -5, -1, -21, 1
4227858429, -1, -218103809, 1862270975, -1895825396, 83353363, 7557, -1047239455, 1
7741, 7741587, -1090, -1, -757, -6, -2, -14, 1
0, 0, 0, 0, 0, 0, 0, 0, 1
8104, 8104590, -1089, 2, -763, -6, -1, -15, 1
8396, 8396587, -1092, 0, -759, -5, -1, -13, 1
0, 0, 0, 0, 0, 0, 0, 0, 1
8825, 8825587, -1090, 6, -759, -5, -1, -28, 1
0, 0, 0, 0, 0, 0, 0, 0, 1
9186, 9186589, -1087, -4, -762, -6, -1, -23, 1
0, 0, 0, 0, 0, 0, 0, 0, 1
9805, 9805588, -1088, 3, -770, -6, -1, -15, 1
9945, 9945589, -1086, 2, -761, -5, -2, -19, 1
10146, 10146587, -1083, 0, -768, -6, -1, -17, 1
10349, 10349587, -1084, 1, -768, -5, -2, -18, 1
10487, 10487589, -1087, -4, -769, -5, -1, -14, 1
10772, 10772587, -1085, 10, -761, -5, -1, -24, 1
10912, 10912590, -1082, 4, -764, -5, -2, -17, 1
11131, 11131590, -1089, -2, -761, -6, -1, -2, 1
0, 0, 0, 0, 0, 0, 0, 0, 1
11752, 11752588, -1086, 2, -764, -6, -1, -13, 1
0, 0, 0, 0, 0, 0, 0, 0, 1
12116, 12116589, -1087, -1, -767, -5, -2, -5, 1
12328, 12328590, -1086, 2, -765, -6, -1, -19, 1
12529, 12529587, -1087, 0, -764, -5, -1, -26, 1
12729, 12729587, -1091, 0, -759, -6, -1, -22, 1
0, 0, 0, 0, 0, 0, 0, 0, 1
13090, 13090590, -1092, -2, -764, -6, -1, -12, 1
13383, 13383587, -1081, 1, -760, -5, -1, -9, 1
0, 0, 0, 0, 0, 0, 0, 0, 1
13740, 13740590, -1088, 0, -758, -6, -2, -22, 1
14036, 14036587, -1087, 0, -772, -5, -1, -19, 1
14174, 14174589, -1085, 2, -774, -6, -2, -21, 1
14375, 14375588, -1085, 0, -766, -5, -2, -20, 1
14578, 14578588, -1091, 2, -763, -6, -1, -1, 1
14716, 14716589, -1085, -1, -765, -6, -1, -21, 1
14922, 14922587, -1084, 0, -767, -6, -1, -24, 1
15122, 15122587, -1080, 3, -760, -6, -1, -18, 1
0, 0, 0, 0, 0, 0, 0, 0, 1
15479, 15479589, -1082, 3, -760, -6, -1, -13, 1
15695, 15695589, -1083, -5, -769, -5, -1, -14, 1
15897, 15897588, -1082, 5, -768, -6, -1, -20, 1
16100, 16100588, -1082, 2, -764, -6, -1, -24, 1
16238, 16238589, -1091, -2, -761, -6, -1, -9, 1
16439, 16439587, -1086, 0, -767, -6, -1, -25, 1
16641, 16641587, -1087, 3, -760, -6, -2, -16, 1
16783, 16783589, -1086, -3, -771, -5, -1, -14, 1
16999, 16999590, -1088, 7, -772, -6, -1, -14, 1
17213, 17213589, -1096, 2, -759, -5, -1, -14, 1
17429, 17429591, -1091, 4, -762, -5, -1, -17, 1
17643, 17643589, -1083, 1, -761, -5, -1, -23, 1
17858, 17858591, -1086, 4, -766, -5, -1, -25, 1
0, 0, 0, 0, 0, 0, 0, 0, 1
18407, 18407590, -1092, -5, -762, -5, 0, -17, 1
18621, 18621592, -1089, 0, -767, -6, -2, -17, 1
18827, 18827588, -1088, 5, -764, -5, -2, -30, 1
19026, 19026587, -1085, -7, -763, -5, -1, -26, 1
0, 0, 0, 0, 0, 0, 0, 0, 1
19383, 19383590, -1082, 2, -761, -5, -1, -25, 1
19599, 19599590, -1089, 2, -760, -5, -2, -26, 1
19817, 19817590, -1092, -3, -766, -5, 0, -18, 1
0, 0, 0, 0, 0, 0, 0, 0, 1
20437, 20437588, -1081, 0, -767, -6, -1, -14, 1
0, 0, 0, 0, 0, 0, 0, 0, 1
20791, 20791892, -1090, -1, -775, -5, 0, -18, 1
21090, 21090588, -1080, 5, -765, -6, -1, -28, 1
0, 0, 0, 0, 0, 0, 0, 0, 1
21447, 21447588, -1084, -1, -762, -5, -1, -17, 1
21664, 21664589, -1085, 1, -759, -5, -1, -12, 1
0, 0, 0, 0, 0, 0, 0, 0, 1
22208, 22208590, -1085, -1, -770, -5, -2, -27, 1
22426, 22426590, -1090, -8, -765, -5, -1, -15, 1
22641, 22641590, -1085, 3, -745, -6, -5, -19, 1
0, 0, 0, 0, 0, 0, 0, 0, 1
23187, 23187589, -1084, -7, -746, -5, 0, -21, 1
23404, 23404589, -1090, 14, -787, -5, -1, -19, 1
23604, 23604587, -1084, -22, -762, -5, -5, -28, 1
23801, 23801415, -1087, -4, -750, -5, 0, -15, 1
23946, 23946590, -1087, -12, -773, -5, -4, -25, 1
24152, 24152588, -1091, 0, -759, -6, 0, -25, 1
24353, 24353588, -1090, 9, -770, -5, -2, -19, 1
24495, 24495588, -1089, -9, -775, -5, -1, -14, 1
24711, 24711589, -1088, -4, -755, -6, 0, -12, 1
24921, 24921590, -1084, 4, -778, -6, -2, -27, 1
25136, 25136589, -1087, 2, -754, -6, -1, -17, 1
25352, 25352589, -1091, -6, -768, -6, -2, -25, 1
25560, 25560587, -1085, 8, -764, -6, -2, -11, 1
25759, 25759587, -1085, -3, -767, -5, -1, -18, 1
0, 0, 0, 0, 0, 0, 0, 0, 1
26119, 26119590, -1088, 0, -767, -5, -1, -26, 1
26335, 26335590, -1085, 1, -773, -6, -1, -23, 1
26551, 26551591, -1088, 3, -760, -5, -1, -25, 1
26765, 26765590, -1086, 0, -759, -5, -1, -21, 1
26970, 26970588, -1086, 7, -755, -6, -2, -27, 1
27171, 27171588, -1083, 2, -763, -6, 0, -19, 1
27313, 27313589, -1083, -1, -757, -5, -1, -20, 1
27525, 27525589, -1085, 0, -776, -5, -2, -23, 1
27743, 27743589, -1085, 13, -763, -6, 0, -11, 1
27949, 27949587, -1075, -12, -783, -6, 0, -5, 1
0, 0, 0, 0, 0, 0, 0, 0, 1
28504, 28504591, -1082, -20, -759, -5, -3, -29, 1
0, 0, 0, 0, 0, 0, 0, 0, 1
29128, 29128588, -1089, 1, -755, -5, 0, -23, 1
29266, 29266589, -1089, 9, -759, -5, -2, -17, 1
29467, 29467587, -1085, -4, -764, -5, -2, -21, 1
29666, 29666587, -1087, -3, -758, -5, -2, -27, 1
0, 0, 0, 0, 0, 0, 0, 0, 1
30214, 30214588, -1082, -4, -771, -5, 0, -21, 1
0, 0, 0, 0, 0, 0, 0, 0, 1
30682, 30682590, -1086, 22, -761, -5, 2, -11, 1
0, 0, 0, 0, 0, 0, 0, 0, 1
31119, 31119590, -1088, 3, -802, -5, -3, -25, 1
31533, 31533588, -1082, 12, -756, -5, 0, -26, 1
31732, 31732588, -1091, 16, -767, -5, -2, -20, 1
0, 0, 0, 0, 0, 0, 0, 0, 1
32207, 32207590, -1087, 11, -755, -6, 3, -20, 1
32421, 32421589, -1087, 2, -773, -5, -4, -17, 1
32622, 32622588, -1086, -6, -765, -5, -2, -14, 1
32820, 32820588, -1087, 0, -772, -5, -2, -17, 1
32966, 32966589, -1088, 5, -762, -5, 1, -21, 1
33182, 33182589, -1088, 3, -759, -5, -5, -14, 1
33396, 33396589, -1093, 3, -750, -5, 2, -8, 1
33686, 33686588, -1084, -1, -771, -6, 0, -10, 1
0, 0, 0, 0, 0, 0, 0, 0, 1
34157, 34157589, -1095, -3, -760, -5, -1, -19, 1
3674529911, -1392508795, -2134797382, 1715979861, 423758438, 96339793, 34375, 34375589, 1
34592, 34592590, -1083, 2, -767, -5, -1, -19, 1
0, 0, 0, 0, 0, 0, 0, 0, 1
35026, 35026591, -1086, 4, -768, -5, -1, -23, 1
0, 0, 0, 0, 0, 0, 0, 0, 1
35458, 35458590, -1085, 1, -762, -5, -2, -25, 1
0, 0, 0, 0, 0, 0, 0, 0, 1
35892, 35892590, -1088, 2, -777, -5, -1, -23, 1
36109, 36109590, -1080, -11, -764, -5, 0, -23, 1
0, 0, 0, 0, 0, 0, 0, 0, 1
36542, 36542590, -1092, -25, -788, -5, 0, -20, 1
36757, 36757590, -1085, 5, -780, -5, -6, -19, 1
36969, 36969590, -1084, 9, -750, -6, -1, -19, 1
37187, 37187591, -1087, 1, -756, -5, -1, -26, 1
37396, 37396588, -1091, 9, -758, -6, -2, -18, 1
37520, 37520591, -1077, 7, -763, -5, -2, -21, 1
0, 0, 0, 0, 0, 0, 0, 0, 1
38070, 38070590, -1082, -11, -770, -5, -1, -24, 1
38284, 38284591, -1081, 11, -748, -5, -3, -24, 1
38486, 38486588, -1090, 3, -759, -5, -1, -21, 1
38685, 38685588, -1084, -7, -761, -5, -2, -21, 1
0, 0, 0, 0, 0, 0, 0, 0, 1
39045, 39045589, -1093, -11, -770, -5, 0, -28, 1
39338, 39338588, -1085, -7, -770, -5, 0, -23, 1
0, 0, 0, 0, 0, 0, 0, 0, 1
39694, 39694589, -1097, -2, -761, -5, -1, -16, 1
39988, 39988588, -1082, -3, -768, -6, -1, -19, 1
0, 0, 0, 0, 0, 0, 0, 0, 1
40347, 40347589, -1091, -6, -763, -5, -1, -18, 1
0, 0, 0, 0, 0, 0, 0, 0, 1
40779, 40779589, -1090, 0, -768, -5, 0, -26, 1
41076, 41076588, -1088, -12, -779, -5, -3, -23, 1
0, 0, 0, 0, 0, 0, 0, 0, 1
41433, 41433589, -1081, -1, -766, -5, -1, -17, 1
41649, 41649589, -1088, 0, -751, -5, -3, -19, 1
41864, 41864589, -1086, 10, -757, -5, -2, -22, 1
42080, 42080588, -1091, 13, -759, -5, 0, -23, 1
42368, 42368588, -1086, 3, -770, -5, -1, -24, 1
42506, 42506588, -1081, -7, -763, -5, -1, -18, 1
42710, 42710587, -1086, 4, -759, -5, -1, -15, 1
42911, 42911587, -1088, -4, -756, -5, -1, -22, 1
43053, 43053590, -1091, -2, -760, -6, -1, -15, 1
43269, 43269589, -1090, 2, -763, -6, -2, -25, 1
43483, 43483590, -1087, 9, -766, -6, 0, -20, 1
43699, 43699589, -1090, 0, -774, -5, -1, -25, 1
44113, 44113588, -1086, -8, -765, -5, 0, -27, 1
44314, 44314588, -1084, 3, -765, -5, -2, -22, 1
44670, 44670589, -1096, -22, -802, -5, -14, -21, 1
0, 0, 0, 0, 0, 0, 0, 0, 1
45213, 45213591, -1070, 101, -917, -3, 4, -22, 1
45213, 45213591, -1070, 101, -917, -3, 4, -22, 1
45762, 45762586, -1074, -122, -716, -5, -5, -19, 1
45957, 45957587, -1087, -23, -772, -5, -1, -21, 1
46180, 46180586, -1084, -2, -762, -5, -1, -21, 1
46371, 46371587, -1089, 1, -763, -5, -1, -21, 1
46577, 46577587, -1088, 0, -760, -5, -2, -29, 1
46799, 46799812, -1089, 3, -762, -5, -1, -16, 1
46990, 46990587, -1091, 0, -764, -6, -1, -14, 1
47196, 47196587, -1091, 0, -758, -5, -1, -25, 1
47419, 47419586, -1089, -4, -755, -6, -1, -24, 1
47610, 47610587, -1089, -1, -767, -5, -1, -25, 1
47811, 47811587, -1085, 0, -761, -5, -1, -29, 1
48045, 48045586, -1082, -3, -758, -5, -1, -22, 1
48236, 48236587, -1090, 2, -770, -5, -1, -9, 1
48442, 48442587, -1083, -1, -755, -6, -2, -26, 1
48665, 48665586, -1086, 0, -755, -5, -2, -22, 1
48859, 48859588, -1084, -6, -767, -6, -1, -24, 1
49082, 49082586, -1090, 1, -764, -5, -2, -15, 1
49273, 49273587, -1084, -3, -762, -6, -1, -18, 1
49479, 49479587, -1084, 2, -755, -5, -2, -27, 1
49702, 49702586, -1085, -9, -765, -5, -1, -16, 1
49895, 49895587, -1088, 0, -760, -6, -2, -18, 1
50118, 50118586, -1087, 2, -775, -5, 1, -14, 1
50309, 50309587, -1092, -9, -779, -6, -1, -20, 1
50515, 50515586, -1085, 3, -750, -5, -2, -21, 1
50738, 50738585, -1086, 7, -767, -5, -2, -24, 1
50929, 50929586, -1087, 2, -758, -5, -2, -24, 1
51135, 51135586, -1098, 41, -722, -34, -6, -12, 1
51358, 51358585, -1126, -43, -938, 85, 13, -4, 1
51549, 51549586, -1099, -29, -809, -7, 14, -1, 1
0, 0, 0, 0, 0, 0, 0, 0, 1
0, 0, 0, 0, 0, 0, 0, 0, 1
0, 0, 0, 0, 0, 0, 0, 0, 1
0, 0, 0, 0, 0, 0, 0, 0, 1
0, 0, 0, 0, 0, 0, 0, 0, 1
0, 0, 0, 0, 0, 0, 0, 0, 1
0, 0, 0, 0, 0, 0, 0, 0, 1
1438, 1438597, -1089, 7, -757, -5, -1, 3, 1
1648, 1648588, -1081, -2, -755, -6, -1, 1, 1
1757, 1757591, -1089, 5, -756, -5, -1, -14, 1
1969, 1969592, -1091, -4, -762, -6, -2, -18, 1
2271, 2271591, -1084, 2, -751, -5, -2, -27, 1
2398, 2398592, -1082, 0, -751, -5, -1, -29, 1
2696, 2696591, -1087, -3, -748, -6, -2, -23, 1
2820, 2820591, -1088, -4, -756, -6, -1, -25, 1
3120, 3120591, -1089, -5, -754, -5, -1, -19, 1
3244, 3244591, -1092, -1, -756, -5, -1, -30, 1
3545, 3545591, -1088, 0, -753, -5, -1, -30, 1
3670, 3670592, -1086, -8, -760, -6, -1, -27, 1
3885, 3885593, -1081, 3, -756, -6, -2, -26, 1
4093, 4093592, -1088, -4, -752, -6, -1, -28, 1
4395, 4395591, -1075, 82, -713, -5, -6, -29, 1
4522, 4522591, -1104, -21, -774, -7, 30, -25, 1
4820, 4820591, -1001, 119, -1133, 91, -58, -25, 1
4839, 4839591, -1075, 212, -1052, 124, -117, -25, 1
5214, 5214591, -949, -531, -63, 30, 82, -28, 1
5327, 5327595, -1009, 120, -1205, -27, -49, -28, 1
5565, 5565591, -1012, 156, -1078, -11, -16, -30, 1
5864, 5864591, -1006, 106, -1103, 27, -52, -23, 1
5990, 5990591, -1061, -15, -601, -15, -53, -25, 1
6290, 6290591, -1220, -96, -139, 1, -156, -31, 1
6414, 6414591, -1069, -58, -592, 15, -67, -31, 1
6715, 6715591, -1029, -163, -379, -23, 80, -25, 1
0, 0, 0, 0, 0, 0, 0, 0, 1
7139, 7139591, -1059, 84, -953, -4, 15, -23, 1
7269, 7269595, -1039, 100, -999, 18, -87, -30, 1
7565, 7565593, -1035, -100, -462, 0, -38, -31, 1
1944836, -1838791680, -967540543, -241591737, 973022785, 503842162, 1368326144, -67764107, 1
7902, 7902594, -1057, -54, -685, -5, 174, -21, 1
2053636, -1827636992, -967507775, -238907577, 1310134593, 531760514, -778108928, -68878213, 1
8416, 8416591, -1337, -146, -626, 96, -192, -26, 1
8539, 8539591, -1063, -102, -609, -8, -93, -32, 1
8838, 8838625, -1047, -61, -566, -2, 122, -23, 1
8966, 8966591, -1056, 75, -686, -9, 149, -25, 1
9266, 9266591, -1036, 83, -1052, 7, -82, -31, 1
9690, 9690593, -1017, -152, -411, -4, 23, -26, 1
9813, 9813591, -1003, -144, -402, -3, 138, -23, 1
10030, 10030592, -1023, 91, -1085, -118, 108, -23, 1
10248, 10248595, -1013, 112, -1056, 35, -121, -26, 1
0, 0, 0, 0, 0, 0, 0, 0, 1
10888, 10888591, -1222, 165, -998, -26, 184, -16, 1
0, 0, 0, 0, 0, 0, 0, 0, 1
11351, 11351591, -1117, 0, -824, 86, -224, -27, 1
11576, 11576591, -1056, -128, -535, -6, -49, -31, 1
0, 0, 0, 0, 0, 0, 0, 0, 1
12128, 12128591, -1044, 91, -1009, -6, 51, -21, 1
0, 0, 0, 0, 0, 0, 0, 0, 1
12680, 12680591, -1043, -144, -460, -6, -47, -30, 1
0, 0, 0, 0, 0, 0, 0, 0, 1
13227, 13227591, -1057, 70, -987, 0, 40, -24, 1
13449, 13449591, -1033, 116, -980, 13, -104, -35, 1
13675, 13675591, -1061, -122, -616, -9, -84, -34, 1
0, 0, 0, 0, 0, 0, 0, 0, 1
14224, 14224588, -1051, 125, -888, -58, 116, -22, 1
14426, 14426593, -1044, 148, -1005, -5, -25, -23, 1
0, 0, 0, 0, 0, 0, 0, 0, 1
14888, 14888594, -1056, -125, -529, -5, 3, -26, 1
15104, 15104595, -1064, -19, -761, -3, 99, -20, 1
15332, 15332591, -1007, 148, -1150, -5, 47, -23, 1
15547, 15547591, -1015, 120, -1030, 21, -144, -25, 1
0, 0, 0, 0, 0, 0, 0, 0, 1
16099, 16099591, -1030, -96, -540, -82, 145, -20, 1
0, 0, 0, 0, 0, 0, 0, 0, 1
16651, 16651592, -1022, 115, -956, 42, -143, -34, 1
0, 0, 0, 0, 0, 0, 0, 0, 1
17203, 17203595, -1016, -53, -528, -85, 160, -16, 1
17428, 17428591, -1025, 145, -1078, -13, 66, -25, 1
0, 0, 0, 0, 0, 0, 0, 0, 1
17980, 17980593, -1035, -137, -438, -2, -28, -28, 1
18197, 18197591, -1204, -20, -789, -13, 167, -21, 1
0, 0, 0, 0, 0, 0, 0, 0, 1
18749, 18749592, -1046, -87, -578, -6, -97, -35, 1
0, 0, 0, 0, 0, 0, 0, 0, 1
19301, 19301595, -1034, 150, -1020, 0, 67, -26, 1
19526, 19526595, -1035, 100, -976, 15, -108, -32, 1
0, 0, 0, 0, 0, 0, 0, 0, 1
20078, 20078591, -1042, -51, -555, -13, 140, -20, 1
0, 0, 0, 0, 0, 0, 0, 0, 1
20633, 20633591, -1122, -30, -579, -12, -117, -36, 1
0, 0, 0, 0, 0, 0, 0, 0, 1
21182, 21182591, -1001, -95, -450, -1, 188, -22, 1
21401, 21401591, -1030, 90, -1114, -10, 86, -14, 1
0, 0, 0, 0, 0, 0, 0, 0, 1
21952, 21952591, -1038, -66, -501, -4, -62, -32, 1
0, 0, 0, 0, 0, 0, 0, 0, 1
22503, 22503594, -1039, 69, -1050, -5, -35, -31, 1
22728, 22728591, -1054, -83, -616, -59, -119, -38, 1
22836, 22836885, -1036, -149, -494, -9, -84, -29, 1
0, 0, 0, 0, 0, 0, 0, 0, 1
23584, 23584593, -1048, 67, -886, 24, -138, -29, 1
0, 0, 0, 0, 0, 0, 0, 0, 1
24044, 24044591, -1049, -80, -625, -70, 118, -21, 1
0, 0, 0, 0, 0, 0, 0, 0, 1
24595, 24595591, -1050, -61, -591, -10, -105, -30, 1
24817, 24817592, -1039, -213, -484, -8, 4, -26, 1
0, 0, 0, 0, 0, 0, 0, 0, 1
25368, 25368592, -1014, -177, -1075, 71, -40, -43, 1
25593, 25593592, -941, -585, -835, -80, -95, -36, 1
0, 0, 0, 0, 0, 0, 0, 0, 1
26141, 26141592, -965, 534, -996, 5, 154, -29, 1
0, 0, 0, 0, 0, 0, 0, 0, 1
26693, 26693591, -991, 2, -532, -78, 121, -6, 1
0, 0, 0, 0, 0, 0, 0, 0, 1
27244, 27244592, -1086, -19, -788, -5, 4, -30, 1
27467, 27467591, -1091, -3, -751, -5, 0, -28, 1
27690, 27690591, -1080, -22, -748, -6, -1, -28, 1
0, 0, 0, 0, 0, 0, 0, 0, 1
28242, 28242588, -1086, 0, -739, -6, 0, -26, 1
28443, 28443591, -1088, -5, -753, -5, -1, -25, 1
0, 0, 0, 0, 0, 0, 0, 0, 1
28902, 28902594, -1089, 2, -749, -6, -1, -27, 1
29121, 29121595, -1083, -2, -744, -6, -2, -28, 1
29343, 29343591, -1085, -8, -757, -5, -1, -27, 1
29567, 29567592, -1083, -2, -747, -5, -1, -28, 1
0, 0, 0, 0, 0, 0, 0, 0, 1
30116, 30116591, -1085, -7, -750, -5, -2, -26, 1
0, 0, 0, 0, 0, 0, 0, 0, 1
30668, 30668591, -1083, -6, -754, -5, -1, -29, 1
0, 0, 0, 0, 0, 0, 0, 0, 1
31220, 31220591, -1081, 0, -747, -5, -2, -26, 1
31445, 31445595, -1084, -6, -755, -6, -1, -29, 1
0, 0, 0, 0, 0, 0, 0, 0, 1
31994, 31994591, -1087, 1, -752, -6, -1, -21, 1
0, 0, 0, 0, 0, 0, 0, 0, 1
32545, 32545591, -1089, -3, -749, -5, -1, -28, 1
32766, 32766591, -1088, -3, -741, -5, -1, -29, 1
0, 0, 0, 0, 0, 0, 0, 0, 1
33318, 33318592, -1085, 2, -755, -5, -2, -21, 1
33543, 33543591, -1085, -3, -755, -5, -2, -31, 1
0, 0, 0, 0, 0, 0, 0, 0, 1
34095, 34095595, -1089, 4, -742, -5, -2, -28, 1
0, 0, 0, 0, 0, 0, 0, 0, 1
34647, 34647591, -1081, 0, -748, -5, -1, -25, 1
34870, 34870594, -1087, 2, -740, -5, -2, -21, 1
0, 0, 0, 0, 0, 0, 0, 0, 1
35417, 35417591, -1089, -1, -747, -5, -1, -29, 1
0, 0, 0, 0, 0, 0, 0, 0, 1
35968, 35968594, -1091, -2, -742, -5, -1, -30, 1
36195, 36195591, -1083, 2, -750, -5, -1, -22, 1
0, 0, 0, 0, 0, 0, 0, 0, 1
36833, 36833591, -1084, 1, -745, -6, -2, -20, 1
36963, 36963591, -1088, -3, -748, -5, -1, -27, 1
0, 0, 0, 0, 0, 0, 0, 0, 1
37514, 37514591, -1092, 0, -749, -5, -1, -26, 1
0, 0, 0, 0, 0, 0, 0, 0, 1
38066, 38066591, -1089, -5, -754, -5, -1, -31, 1
0, 0, 0, 0, 0, 0, 0, 0, 1
38618, 38618591, -1084, 0, -751, -5, -1, -26, 1
38842, 38842591, -1082, 1, -751, -5, -1, -25, 1
0, 0, 0, 0, 0, 0, 0, 0, 1
39395, 39395591, -1089, 2, -758, -6, -1, -26, 1
0, 0, 0, 0, 0, 0, 0, 0, 1
39949, 39949588, -1088, -2, -751, -5, -2, -25, 1
40151, 40151591, -1086, -1, -738, -5, -1, -27, 1
0, 0, 0, 0, 0, 0, 0, 0, 1
40605, 40605591, -1085, 0, -745, -6, -2, -27, 1
40826, 40826595, -1087, -6, -760, -6, -1, -27, 1
40938, 40938593, -1085, 1, -750, -5, -2, -30, 1
0, 0, 0, 0, 0, 0, 0, 0, 1
41593, 41593591, -1089, -6, -747, -5, -1, -29, 1
41901, 41901591, -1081, -4, -753, -5, -1, -28, 1
0, 0, 0, 0, 0, 0, 0, 0, 1
42363, 42363591, -1086, 2, -745, -5, -1, -28, 1
0, 0, 0, 0, 0, 0, 0, 0, 1
42917, 42917594, -1085, -5, -757, -5, -1, -29, 1
43134, 43134595, -1083, 2, -749, -5, -1, -21, 1
43356, 43356591, -1086, -5, -747, -5, -1, -25, 1
0, 0, 0, 0, 0, 0, 0, 0, 1
43906, 43906593, -1084, -4, -737, -5, -1, -25, 1
44127, 44127591, -1081, 2, -745, -5, -1, -28, 1
44352, 44352591, -1082, -3, -749, -5, -1, -29, 1
44571, 44571591, -1089, 2, -751, -6, -1, -29, 1
0, 0, 0, 0, 0, 0, 0, 0, 1
45122, 45122591, -1083, 0, -747, -6, -1, -29, 1
0, 0, 0, 0, 0, 0, 0, 0, 1
45675, 45675591, -1090, -1, -747, -5, -1, -29, 1
0, 0, 0, 0, 0, 0, 0, 0, 1
46226, 46226588, -1085, 0, -749, -6, -1, -30, 1
46435, 46435591, -1081, -4, -749, -5, -2, -19, 1
0, 0, 0, 0, 0, 0, 0, 0, 1
46892, 46892594, -1087, -1, -746, -5, -2, -22, 1
47109, 47109591, -1090, -3, -753, -5, -1, -29, 1
47334, 47334591, -1083, -3, -750, -5, -2, -27, 1
47555, 47555591, -1080, -7, -751, -5, -1, -26, 1
0, 0, 0, 0, 0, 0, 0, 0, 1
48324, 48324591, -1089, -8, -745, -5, 0, -28, 1
0, 0, 0, 0, 0, 0, 0, 0, 1
48879, 48879593, -1082, -8, -755, -5, -1, -31, 1
49103, 49103591, -1086, 0, -740, -5, -1, -27, 1
49317, 49317591, -1086, -4, -746, -5, -1, -30, 1
49538, 49538591, -1087, 0, -749, -5, -2, -24, 1
49759, 49759591, -1093, 0, -747, -5, -1, -23, 1
49980, 49980591, -1083, 3, -744, -5, -1, -29, 1
50205, 50205595, -1086, -8, -742, -5, -1, -22, 1
50423, 50423590, -1086, 7, -751, -6, -1, -27, 1
0, 0, 0, 0, 0, 0, 0, 0, 1
50976, 50976591, -1090, -3, -740, -5, -1, -25, 1
0, 0, 0, 0, 0, 0, 0, 0, 1
51526, 51526590, -1086, 3, -738, -5, -2, -29, 1
51751, 51751590, -1088, -1, -749, -5, -1, -29, 1
52061, 52061590, -1089, -1, -747, -5, -2, -27, 1
0, 0, 0, 0, 0, 0, 0, 0, 1
52521, 52521590, -1086, 2, -748, -5, -2, -30, 1
0, 0, 0, 0, 0, 0, 0, 0, 1
53072, 53072590, -1091, 3, -736, -5, -2, -31, 1
53293, 53293593, -1085, -5, -756, -6, 0, -27, 1
53515, 53515590, -1087, -10, -759, -5, -2, -25, 1
0, 0, 0, 0, 0, 0, 0, 0, 1
54067, 54067590, -1091, 4, -741, -5, -1, -26, 1
0, 0, 0, 0, 0, 0, 0, 0, 1
54619, 54619590, -1089, -9, -756, -5, -1, -28, 1
0, 0, 0, 0, 0, 0, 0, 0, 1
55171, 55171590, -1085, 1, -739, -5, -2, -29, 1
0, 0, 0, 0, 0, 0, 0, 0, 1
55722, 55722590, -1090, -1, -747, -6, -2, -26, 1
55946, 55946590, -1086, -4, -745, -5, -1, -29, 1
0, 0, 0, 0, 0, 0, 0, 0, 1
56496, 56496590, -1091, 0, -749, -5, -2, -23, 1
56717, 56717590, -1090, -6, -750, -5, -1, -26, 1
57030, 57030590, -1088, -8, -747, -5, -1, -24, 1
0, 0, 0, 0, 0, 0, 0, 0, 1
57489, 57489590, -1087, -4, -751, -5, 0, -26, 1
0, 0, 0, 0, 0, 0, 0, 0, 1
58041, 58041590, -1087, -5, -756, -5, -1, -24, 1
58262, 58262590, -1082, -4, -750, -5, -1, -29, 1
0, 0, 0, 0, 0, 0, 0, 0, 1
58905, 58905592, -1088, -14, -755, -6, -1, -26, 1
59135, 59135590, -1084, 1, -748, -5, -1, -28, 1
59366, 59366587, -1084, 1, -743, -5, -3, -27, 1
59476, 59476590, -1091, 3, -747, -5, -1, -24, 1
59698, 59698590, -1093, 10, -755, -5, -1, -30, 1
0, 0, 0, 0, 0, 0, 0, 0, 1
60250, 60250590, -1090, 16, -808, -5, 12, -24, 1
0, 0, 0, 0, 0, 0, 0, 0, 1
0, 0, 0, 0, 0, 0, 0, 0, 1
0, 0, 0, 0, 0, 0, 0, 0, 1
0, 0, 0, 0, 0, 0, 0, 0, 1
0, 0, 0, 0, 0, 0, 0, 0, 1
0, 0, 0, 0, 0, 0, 0, 0, 1
0, 0, 0, 0, 0, 0, 0, 0, 1
0, 0, 0, 0, 0, 0, 0, 0, 1
1421, 1421576, -1090, 27, -744, -5, 0, 3, 1
1619, 1619581, -1084, 0, -751, -5, -6, 1, 1
1778, 1778580, -1085, 92, -815, -5, -3, -23, 1
2006, 2006581, -1086, -14, -749, -5, 5, -20, 1
2154, 2154576, -1089, 13, -748, -5, -4, -8, 1
2419, 2419576, -1085, -1, -745, -6, -1, -25, 1
2680, 2680576, -1087, 2, -770, -5, -2, -26, 1
2820, 2820582, -1086, -3, -748, -5, -1, -25, 1
3029, 3029576, -1083, -3, -759, -6, -1, -24, 1
3296, 3296576, -1091, 0, -749, -6, -2, -25, 1
3555, 3555576, -1085, 0, -752, -5, -1, -23, 1
3823, 3823579, -1083, -4, -765, -5, -1, -29, 1
4094, 4094576, -1084, 3, -754, -6, -1, -14, 1
4347, 4347576, -1084, -5, -770, -5, -2, -25, 1
4605, 4605576, -1092, -5, -759, -5, -2, -20, 1
4869, 4869579, -1088, 8, -758, -6, -1, -22, 1
5130, 5130576, -1090, 0, -758, -5, -1, -11, 1
5393, 5393576, -1090, -2, -760, -5, -2, -12, 1
5668, 5668576, -1087, 2, -759, -6, -1, -27, 1
5919, 5919576, -1088, -2, -759, -5, -1, -26, 1
6180, 6180576, -1088, -4, -761, -5, -1, -20, 1
6443, 6443576, -1087, -3, -748, -5, -1, -26, 1
6706, 6706576, -1080, 2, -754, -6, -2, -25, 1
6969, 6969576, -1080, 0, -754, -5, -1, -21, 1
7231, 7231576, -197699, 3, -764, -53, -3, -33556509, 1
7493, 7493576, -1087, 1, -759, -6, -2, -28, 1
7756, 7756576, -1093, 6, -754, -5, -2, -20, 1
8019, 8019576, -1087, 0, -758, -5, -1, -27, 1
8280, 8280576, -1082, -3, -762, -5, -2, -28, 1
2129924, -1905721088, -967737151, -92610233, 436180801, 1788, 0, 0, 1
8543, 8543576, -1087, 6, -754, -5, -2, -24, 1
8803, 8803894, -1087, -2, -754, -5, -1, -26, 1
9069, 9069576, -1084, 0, -756, -5, -1, -28, 1
9330, 9330576, -1088, -4, -759, -6, -1, -25, 1
9606, 9606576, -1083, -2, -764, -5, -2, -26, 1
9868, 9868576, -1088, 0, -754, -5, -1, -28, 1
10118, 10118576, -1082, -2, -759, -5, -1, -29, 1
10381, 10381576, -1088, 2, -751, -5, -1, -27, 1
10644, 10644576, -1092, 5, -751, -5, -2, -24, 1
10908, 10908576, -1085, -5, -757, -5, -2, -23, 1
11169, 11169576, -1091, 1, -759, -5, -1, -30, 1
11430, 11430576, -1087, 2, -757, -6, -1, -18, 1
11693, 11693576, -1087, 2, -744, -6, -1, -25, 1
11834, 11834582, -1082, -2, -762, -5, -1, -23, 1
12043, 12043576, -1085, -3, -758, -6, -1, -23, 1
12307, 12307576, -1086, 0, -764, -5, -2, -23, 1
12568, 12568576, -1081, 5, -751, -5, -1, -29, 1
12833, 12833579, -1091, 0, -752, -5, -1, -29, 1
13093, 13093576, -1088, -4, -759, -5, -2, -20, 1
13356, 13356576, -1086, -3, -768, -6, -1, -24, 1
13621, 13621576, -1085, -3, -759, -5, -1, -18, 1
13893, 13893576, -1087, 4, -749, -5, -1, -27, 1
14143, 14143576, -1087, 0, -755, -5, -2, -21, 1
14405, 14405576, -1083, 0, -749, -5, -1, -23, 1
0, 0, 0, 0, 0, 0, 0, 0, 1
14881, 14881579, -1088, 2, -764, -6, -1, -29, 1
15004, 15004579, -1093, -3, -762, -5, -1, -27, 1
15225, 15225581, -1086, -1, -763, -5, -1, -24, 1
15387, 15387580, -1087, 0, -757, -5, -1, -27, 1
15518, 15518580, -1087, 0, -757, -5, -2, -11, 1
16030, 16030576, -1086, -6, -759, -5, -1, -22, 1
16305, 16305576, -1086, -6, -765, -5, -1, -23, 1
16555, 16555576, -1086, 0, -759, -6, -1, -17, 1
16815, 16815982, -1086, 1, -759, -5, -2, -20, 1
17079, 17079576, -1087, -2, -761, -5, -2, -20, 1
17355, 17355576, -1078, 2, -754, -5, -1, -29, 1
17605, 17605576, -1087, 0, -763, -5, -1, -15, 1
17866, 17866579, -1083, 0, -756, -5, -1, -24, 1
18142, 18142576, -1084, 2, -766, -5, -1, -25, 1
18391, 18391576, -1084, 0, -751, -5, -1, -26, 1
18667, 18667576, -1088, 1, -759, -5, -1, -26, 1
18919, 18919576, -1086, 0, -752, -5, -1, -29, 1
19180, 19180576, -1083, 0, -762, -5, -1, -26, 1
19441, 19441576, -1088, 1, -751, -5, -1, -17, 1
19705, 19705576, -1087, 0, -757, -5, -1, -11, 1
19970, 19970576, -1087, -4, -763, -5, -1, -24, 1
20229, 20229576, -1087, 2, -753, -6, -1, -20, 1
20492, 20492576, -1089, -1, -756, -5, -1, -27, 1
20754, 20754576, -1087, 0, -763, -6, -2, -28, 1
21017, 21017576, -1089, 1, -761, -5, -2, -23, 1
21279, 21279576, -1086, 0, -761, -5, -1, -22, 1
21542, 21542576, -1088, 0, -762, -6, -1, -23, 1
21803, 21803282, -1087, 0, -753, -5, -1, -16, 1
22073, 22073576, -1086, 0, -754, -5, -2, -27, 1
22329, 22329576, -1086, 1, -754, -5, -2, -21, 1
22594, 22594576, -1083, 5, -754, -6, -2, -20, 1
22855, 22855579, -1083, 4, -759, -5, -1, -17, 1
23120, 23120576, -1081, 2, -764, -6, -1, -20, 1
23379, 23379576, -1086, -1, -752, -5, -1, -17, 1
23644, 23644576, -1087, 1, -760, -5, 0, -28, 1
23906, 23906576, -1086, -1, -745, -5, -1, -24, 1
24174, 24174576, -1085, 0, -760, -6, -2, -28, 1
24430, 24430576, -1089, -1, -758, -5, -1, -22, 1
24691, 24691576, -1088, -5, -757, -5, -1, -23, 1
24955, 24955576, -1081, -5, -753, -5, -1, -21, 1
25219, 25219576, -1088, 3, -760, -6, -1, -21, 1
25481, 25481576, -1090, 6, -755, -6, -1, -22, 1
25745, 25745576, -1084, 4, -759, -5, -1, -22, 1
26005, 26005576, -1085, -5, -766, -5, -1, -22, 1
26273, 26273576, -1091, -4, -764, -5, -1, -22, 1
26542, 26542576, -1087, 0, -762, -5, -2, -25, 1
26792, 26792719, -1082, -2, -767, -5, -1, -21, 1
27068, 27068576, -1085, 0, -763, -6, -2, -27, 1
27319, 27319576, -1085, -2, -771, -5, -1, -27, 1
27593, 27593576, -1089, 0, -761, -5, -1, -25, 1
27842, 27842579, -1080, 1, -759, -6, -1, -22, 1
28105, 28105576, -1085, 2, -760, -6, -2, -21, 1
28370, 28370576, -1083, 0, -764, -5, -2, -21, 1
28629, 28629576, -1091, 1, -757, -5, -2, -20, 1
28893, 28893579, -1087, -4, -766, -6, -2, -21, 1
29155, 29155576, -1084, -3, -767, -5, -1, -26, 1
29418, 29418576, -1083, 0, -750, -6, -2, -25, 1
29679, 29679576, -1087, 0, -756, -5, -1, -24, 1
29941, 29941576, -1081, -1, -762, -6, -1, -18, 1
30205, 30205576, -1084, 0, -759, -5, -1, -20, 1
30470, 30470576, -1088, 2, -758, -5, -1, -17, 1
30730, 30730576, -1088, 2, -765, -5, -1, -17, 1
0, 0, 0, 0, 0, 0, 0, 0, 1
31159, 31159576, -1089, -2, -762, -5, -1, -12, 1
31284, 31284580, -1083, -3, -758, -5, -2, -25, 1
31506, 31506581, -1087, 1, -755, -5, -2, -23, 1
31673, 31673580, -1085, 0, -759, -5, -1, -21, 1
31796, 31796054, -1086, -1, -755, -5, -2, -25, 1
32045, 32045576, -1083, 0, -752, -5, -2, -29, 1
32310, 32310576, -1089, 4, -763, -6, -1, -24, 1
32575, 32575576, -1083, 0, -759, -5, -2, -26, 1
32836, 32836579, -1083, 4, -755, -5, -1, -17, 1
33098, 33098576, -1086, -6, -757, -5, -1, -27, 1
33363, 33363576, -1084, 1, -754, -6, -1, -21, 1
33623, 33623576, -1086, -8, -750, -6, -1, -24, 1
33893, 33893579, -1090, 0, -760, -5, -1, -21, 1
34148, 34148576, -1085, 0, -749, -5, -1, -18, 1
34413, 34413576, -1088, 0, -755, -5, -1, -23, 1
2257650764, -1163067392, 1434501523, -1889777722, 1825980928, 440061, 0, 0, 1
34675, 34675576, -1088, -1, -757, -5, -2, -31, 1
34937, 34937576, -1087, -1, -763, -5, -2, -22, 1
35210, 35210576, -1084, 1, -765, -5, -2, -23, 1
0, 0, 0, 0, 0, 0, 0, 0, 1
35666, 35666576, -1086, 0, -755, -5, -1, -28, 1
35789, 35789468, -1091, -4, -758, -5, -1, -29, 1
36013, 36013581, -1091, 1, -759, -5, -1, -15, 1
36176, 36176580, -1087, -4, -748, -6, -1, -21, 1
36405, 36405581, -1087, -1, -754, -5, -1, -23, 1
36556, 36556576, -1086, 3, -758, -6, -1, -24, 1
36818, 36818579, -1084, 0, -757, -6, -1, -21, 1
37083, 37083576, -1085, 2, -750, -5, -1, -22, 1
37342, 37342576, -1085, 1, -759, -5, -1, -25, 1
37609, 37609576, -1088, 2, -750, -5, -1, -15, 1
37869, 37869579, -1088, 0, -755, -5, -1, -23, 1
38133, 38133576, -1093, 0, -750, -6, -1, -22, 1
38393, 38393576, -1085, -3, -761, -5, -1, -29, 1
38657, 38657576, -1091, -4, -761, -5, -2, -23, 1
38920, 38920576, -1085, -3, -751, -5, -2, -24, 1
39183, 39183576, -1085, -1, -756, -6, -1, -25, 1
39442, 39442576, -1085, 2, -762, -5, -1, -22, 1
39708, 39708576, -1084, 0, -756, -5, -1, -17, 1
39980, 39980576, -1087, -2, -749, -5, -1, -18, 1
40232, 40232576, -1089, -1, -754, -5, -1, -20, 1
40492, 40492576, -1086, 2, -762, -5, -1, -26, 1
40760, 40760576, -1088, 1, -756, -6, -1, -19, 1
41018, 41018576, -1084, 5, -761, -6, -1, -26, 1
2690647154, -1139867648, 1409335697, 1374439366, -1867496959, 409486, 0, 0, 1
41283, 41283576, -1087, 2, -764, -5, -2, -18, 1
41542, 41542576, -1091, -4, -762, -6, -1, -10, 1
41805, 41805329, -1084, 8, -757, -5, -1, -25, 1
42068, 42068576, -1088, -4, -763, -5, -1, -28, 1
42330, 42330576, -1082, 1, -752, -5, -1, -13, 1
42593, 42593576, -1089, 0, -756, -5, -1, -20, 1
42854, 42854579, -1084, 1, -757, -6, -1, -19, 1
43117, 43117576, -1088, 2, -759, -6, -2, -7, 1
43380, 43380576, -1088, 2, -755, -5, -1, -14, 1
43642, 43642576, -1091, -4, -760, -5, -1, -22, 1
43906, 43906576, -1082, 1, -761, -5, -1, -16, 1
44180, 44180576, -1087, 0, -761, -5, -1, -26, 1
44429, 44429576, -1088, 1, -759, -5, -2, -28, 1
44692, 44692576, -1088, -5, -764, -5, -1, -11, 1
44954, 44954576, -1085, -6, -758, -6, 0, -22, 1
45217, 45217576, -1085, 0, -764, -5, -1, -27, 1
45493, 45493576, -1089, -6, -763, -5, -2, -20, 1
45743, 45743576, -1089, -4, -761, -5, -1, -23, 1
46004, 46004576, -1089, -5, -754, -5, -1, -23, 1
46267, 46267576, -1088, 3, -762, -5, -1, -28, 1
46530, 46530576, -1091, 2, -758, -5, -2, -19, 1
46803, 46803795, -1089, 3, -761, -6, -2, -26, 1
46942, 46942580, -1089, 2, -767, -5, -2, -22, 1
47261, 47261581, -1086, 2, -759, -6, -1, -22, 1
47399, 47399580, -1091, -3, -762, -6, -2, -30, 1
47611, 47611576, -1086, -6, -759, -5, -2, -8, 1
47758, 47758579, -1084, -6, -770, -5, -1, -26, 1
47894, 47894580, -1087, 2, -755, -6, -2, -25, 1
48136, 48136576, -1086, 1, -753, -6, -2, -18, 1
48404, 48404576, -1089, 0, -754, -5, -2, -20, 1
48663, 48663576, -1088, 2, -747, -5, -2, -21, 1
48930, 48930576, -1085, 0, -760, -5, -2, -22, 1
49191, 49191576, -1087, -4, -764, -6, -2, -22, 1
49454, 49454576, -1089, 3, -756, -5, -1, -28, 1
49714, 49714576, -1088, -5, -759, -5, -1, -23, 1
49979, 49979576, -1091, 9, -760, -5, -2, -11, 1
50239, 50239576, -1083, -1, -752, -5, -1, -12, 1
50504, 50504575, -1091, 4, -764, -6, -1, -10, 1
50763, 50763575, -1091, 2, -760, -5, -1, -25, 1
51029, 51029575, -1088, -1, -760, -5, -2, -18, 1
51303, 51303575, -1081, 3, -753, -5, -1, -26, 1
51554, 51554575, -1089, 4, -755, -6, -1, -20, 1
51815, 51815578, -1083, 3, -763, -6, -1, -17, 1
52080, 52080575, -1087, 10, -758, -5, -1, -19, 1
52352, 52352575, -1085, 2, -762, -5, -2, -21, 1
52603, 52603575, -1084, -1, -755, -6, -2, -27, 1
52877, 52877575, -1090, -2, -761, -5, -2, -10, 1
53126, 53126575, -1084, -6, -756, -5, -2, -14, 1
53389, 53389575, -1085, -4, -760, -5, -1, -18, 1
53651, 53651575, -1086, 4, -756, -6, -1, -10, 1
53916, 53916575, -1087, 2, -759, -5, -1, -19, 1
54176, 54176575, -1089, -3, -759, -5, -1, -6, 1
54439, 54439575, -1091, 0, -755, -5, -1, -18, 1
54701, 54701575, -1089, 0, -765, -5, -1, -18, 1
54963, 54963575, -1089, -1, -760, -5, -1, -18, 1
55226, 55226575, -1093, 0, -763, -6, -1, -15, 1
55502, 55502575, -1087, 0, -759, -5, -1, -16, 1
55751, 55751575, -1086, -3, -760, -5, -1, -19, 1
56014, 56014575, -1088, 0, -748, -5, -2, -12, 1
56276, 56276575, -1089, 0, -753, -6, -2, -20, 1
56552, 56552575, -1084, 2, -753, -6, -1, -20, 1
56800, 56800575, -1085, 1, -762, -5, -2, -21, 1
57065, 57065575, -1080, 1, -758, -5, -1, -28, 1
57339, 57339575, -1079, -7, -766, -5, 0, -19, 1
57588, 57588575, -1087, 11, -756, -5, -2, -20, 1
57864, 57864575, -1084, -3, -761, -5, -1, -22, 1
58113, 58113575, -1086, 1, -768, -6, -1, -16, 1
58376, 58376575, -1091, 1, -760, -5, -1, -11, 1
58652, 58652575, -1096, 3, -760, -5, -1, -16, 1
58902, 58902578, -1081, -1, -759, -6, -2, -12, 1
59163, 59163575, -1091, 0, -761, -5, -2, -11, 1
59426, 59426575, -1089, 12, -757, -5, -2, -15, 1
59702, 59702575, -1091, 3, -750, -6, -2, -15, 1
59952, 59952575, -1087, 6, -760, -5, -2, -17, 1
60214, 60214575, -1086, 2, -762, -5, -1, -4, 1
60476, 60476575, -1091, 2, -758, -5, -1, -8, 1
60751, 60751575, -1087, 5, -760, -5, -1, -13, 1
61002, 61002575, -1087, 1, -755, -5, -1, -14, 1
61263, 61263575, -1087, -5, -753, -5, -2, -14, 1
1996760727, -1392508689, -2134797382, 340248149, 188875694, 116956728, 0, 0, 1
61539, 61539575, -1088, -2, -760, -5, -1, -24, 1
61787, 61787974, -1085, 1, -763, -5, -1, -24, 1
62065, 62065575, -1089, 0, -752, -5, -2, -23, 1
62328, 62328575, -1087, -5, -748, -5, -2, -20, 1
62590, 62590575, -1085, -9, -769, -6, -1, -17, 1
62842, 62842578, -1084, 4, -755, -5, -2, -24, 1
63101, 63101575, -1083, 7, -757, -6, -1, -22, 1
63253, 63253580, -1084, 3, -755, -6, -1, -23, 1
63561, 63561580, -1086, -6, -756, -5, -2, -16, 1
63699, 63699578, -1090, -4, -766, -5, -1, -19, 1
63917, 63917575, -1093, -11, -759, -5, 0, -24, 1
64176, 64176575, -1086, -9, -769, -5, -2, -11, 1
64440, 64440575, -1092, 9, -743, -6, -1, -8, 1
64701, 64701575, -1090, 0, -763, -6, 0, -19, 1
64963, 64963575, -1090, 7, -759, -6, -2, -15, 1
65225, 65225575, -1090, 4, -768, -5, -2, -17, 1
65487, 65487575, -1089, 1, -764, -6, -3, -14, 1
65764, 65764575, -1082, 6, -751, -6, -2, -8, 1
66012, 66012575, -1085, 2, -760, -5, -2, -21, 1
66276, 66276575, -1086, -7, -757, -5, 0, -18, 1
66538, 66538575, -1088, 4, -769, -5, -1, -9, 1
66798, 66798973, -1083, 2, -766, -5, -2, -17, 1
67064, 67064575, -1087, 0, -760, -5, -2, -26, 1
67326, 67326575, -1083, 0, -761, -5, -1, -20, 1
67589, 67589575, -1091, -4, -749, -5, -1, -8, 1
67864, 67864575, -1091, 2, -771, -5, -1, -18, 1
68114, 68114575, -1088, 2, -758, -6, -1, -17, 1
68377, 68377575, -1088, -3, -754, -5, -1, -24, 1
68638, 68638575, -1085, -2, -763, -6, -1, -10, 1
68904, 68904575, -1091, -3, -760, -5, -1, -26, 1
69164, 69164575, -1092, -9, -765, -5, -2, -22, 1
69425, 69425575, -1081, -2, -752, -5, -2, -15, 1
69701, 69701575, -1085, 0, -756, -5, -2, -19, 1
0, 0, 0, 0, 0, 0, 0, 0, 1
70168, 70168575, -1086, 0, -759, -5, -1, -12, 1
70323, 70323578, -1085, -6, -762, -5, -1, -21, 1
70693, 70693575, -1090, 0, -760, -5, -1, -29, 1
70958, 70958575, -1081, 2, -757, -5, 0, -25, 1
71220, 71220575, -1087, 0, -763, -5, -1, -25, 1
71482, 71482575, -1090, 0, -755, -5, -1, -14, 1
71758, 71758575, -1086, 0, -765, -5, -1, -20, 1
72008, 72008575, -1088, 1, -759, -6, -1, -23, 1
72270, 72270575, -1089, 7, -755, -5, -2, -28, 1
72533, 72533575, -1083, 0, -754, -5, -1, -22, 1
72794, 72794230, -1092, -2, -765, -5, -2, -21, 1
73062, 73062575, -1094, -5, -763, -5, -2, -20, 1
73320, 73320575, -1084, -4, -758, -6, -1, -26, 1
73586, 73586575, -1086, 3, -756, -5, -1, -13, 1
73856, 73856575, -1086, 0, -760, -5, -2, -28, 1
74111, 74111575, -1090, -1, -763, -6, -1, -13, 1
74383, 74383575, -1088, -2, -763, -5, -1, -20, 1
74635, 74635575, -1081, 0, -751, -6, -2, -6, 1
74896, 74896578, -1081, 3, -770, -5, -1, -12, 1
75161, 75161575, -1088, -6, -761, -6, -2, -22, 1
75420, 75420575, -1088, -2, -753, -5, -2, -17, 1
75686, 75686575, -1088, -5, -756, -5, -1, -12, 1
75958, 75958575, -1089, 0, -765, -5, -1, -5, 1
76213, 76213575, -1085, 2, -759, -6, -1, -16, 1
76470, 76470575, -1085, 2, -761, -5, -1, -14, 1
76735, 76735575, -1084, 4, -759, -5, -1, -14, 1
76995, 76995575, -1090, -1, -762, -5, -1, -13, 1
77260, 77260575, -1088, 0, -756, -5, -2, -18, 1
77520, 77520575, -1086, -2, -759, -5, -1, -4, 1
77785, 77785575, -1086, -5, -765, -5, -2, -9, 1
78058, 78058575, -1097, 1, -750, -6, -1, -10, 1
78306, 78306575, -1097, 0, -755, -5, -1, -7, 1
78582, 78582575, -1086, -4, -769, -5, -1, -18, 1
78836, 78836578, -1090, 1, -760, -5, -1, -21, 1
79095, 79095575, -1090, 2, -753, -6, -1, -10, 1
79357, 79357575, -1085, -2, -752, -5, -1, -18, 1
0, 0, 0, 0, 0, 0, 0, 0, 1
79913, 79913580, -1087, -2, -752, -5, -2, -13, 1
80173, 80173575, -1088, -2, -759, -5, -1, -7, 1
80436, 80436575, -1089, 2, -757, -5, -1, -15, 1
80699, 80699575, -1086, -1, -745, -6, -1, -12, 1
80961, 80961575, -1082, -1, -758, -5, -1, -20, 1
81223, 81223575, -1086, 0, -763, -5, -2, -21, 1
81486, 81486575, -1094, 0, -754, -5, -1, -16, 1
81749, 81749575, -1088, -1, -759, -5, -1, -13, 1
82011, 82011575, -1086, -2, -757, -5, -2, -20, 1
82273, 82273575, -1085, -6, -759, -5, -1, -22, 1
82536, 82536575, -1089, 7, -765, -5, -1, -3, 1
82796, 82796575, -1091, 0, -757, -5, -1, -17, 1
83061, 83061575, -1089, 2, -759, -5, -1, -11, 1
83324, 83324575, -1081, 5, -747, -5, -2, -12, 1
83573, 83573575, -1091, 0, -761, -5, -2, -14, 1
83837, 83837578, -1091, 0, -755, -6, -1, -11, 1
84111, 84111575, -1086, 2, -758, -5, -2, -14, 1
84360, 84360575, -1088, 2, -761, -5, -1, -13, 1
84622, 84622575, -1088, 4, -763, -5, -1, -7, 1
84898, 84898575, -1089, -2, -756, -5, -2, -12, 1
85147, 85147575, -1087, 2, -760, -5, -1, -10, 1
85423, 85423575, -1087, -5, -763, -6, -1, -6, 1
85672, 85672575, -1092, 1, -761, -5, -1, -7, 1
85935, 85935575, -1085, 0, -751, -6, -1, -16, 1
86197, 86197575, -1091, 2, -763, -5, -1, -1, 1
86459, 86459575, -1088, 0, -760, -6, -1, -26, 1
86735, 86735575, -1083, -1, -759, -5, -1, -14, 1
86986, 86986575, -1088, -2, -759, -5, -1, -14, 1
87260, 87260575, -1087, 0, -767, -6, -1, -10, 1
87514, 87514575, -1082, 9, -764, -6, -2, -10, 1
87772, 87772575, -1088, 0, -762, -5, -1, -12, 1
88038, 88038575, -1083, 2, -756, -6, -1, -10, 1
88311, 88311575, -1086, 5, -757, -5, -1, -16, 1
88562, 88562575, -1091, 0, -750, -5, -1, -9, 1
88826, 88826578, -1085, 0, -765, -5, -1, -30, 1
89087, 89087575, -1092, 1, -762, -5, -1, -9, 1
89347, 89347575, -1084, -4, -763, -5, -1, -3, 1
89612, 89612575, -1082, -6, -759, -5, -1, -9, 1
89885, 89885575, -1087, -2, -755, -5, -1, -19, 1
90138, 90138575, -1090, -3, -769, -5, -2, -10, 1
90397, 90397575, -1089, 5, -753, -5, -2, -7, 1
90663, 90663575, -1087, 3, -764, -6, -1, -12, 1
90922, 90922575, -1085, 0, -763, -6, -1, -13, 1
91187, 91187575, -1091, 1, -767, -5, -1, -14, 1
91447, 91447575, -1086, 0, -762, -6, -1, -11, 1
91712, 91712575, -1082, 2, -758, -6, -1, -21, 1
91972, 91972575, -1090, 3, -760, -6, -1, -16, 1
92248, 92248575, -1085, 2, -761, -6, -1, -7, 1
92499, 92499575, -1090, 4, -765, -5, -1, -16, 1
92760, 92760575, -1088, -6, -764, -5, -1, -22, 1
93022, 93022575, -1088, -3, -761, -5, -1, -22, 1
93285, 93285575, -1085, 0, -761, -5, -1, -14, 1
93547, 93547575, -1088, 4, -760, -5, -1, -18, 1
93810, 93810578, -1095, -3, -763, -5, -1, -9, 1
94072, 94072575, -1087, -2, -757, -5, -1, -11, 1
94335, 94335575, -1088, -2, -769, -5, -1, -6, 1
94597, 94597575, -1081, 11, -759, -5, -1, -17, 1
94857, 94857578, -1088, -3, -759, -6, 0, -20, 1
95122, 95122575, -1083, -5, -765, -6, -2, -13, 1
95385, 95385575, -1080, -3, -762, -6, -2, -18, 1
95647, 95647575, -1086, -1, -742, -5, 0, -25, 1
0, 0, 0, 0, 0, 0, 0, 0, 1
96128, 96128578, -1090, 3, -761, -5, -2, -17, 1
96354, 96354579, -1086, 0, -773, -6, -2, -16, 1
96584, 96584580, -1089, 2, -755, -6, 0, -12, 1
96732, 96732575, -1083, 1, -761, -5, -2, -20, 1
96996, 96996575, -1087, -1, -752, -6, -1, -23, 1
97258, 97258575, -1089, 5, -760, -5, -3, -20, 1
97534, 97534575, -1087, 0, -750, -5, 0, -12, 1
97784, 97784575, -1087, -6, -756, -5, -3, -14, 1
98060, 98060575, -1087, 0, -758, -6, -2, -13, 1
98323, 98323575, -1084, 5, -749, -5, -1, -24, 1
98585, 98585575, -1081, 6, -753, -5, -1, -24, 1
98835, 98835578, -1092, -2, -757, -5, -2, -14, 1
99109, 99109575, -1090, -4, -767, -5, 0, -17, 1
99371, 99371575, -1084, 4, -759, -5, -2, -25, 1
99620, 99620575, -1087, 5, -751, -6, -2, -18, 1
99895, 99895575, -1088, 2, -761, -6, -1, -21, 1
100159, 100159575, -1085, 1, -756, -6, -1, -10, 1
100408, 100408575, -1084, -6, -758, -5, -1, -10, 1
100684, 100684574, -1087, -3, -757, -5, -1, -10, 1
100937, 100937574, -1091, 0, -760, -6, -1, -20, 1
101209, 101209574, -1084, -1, -761, -6, -1, -15, 1
101462, 101462574, -1087, -4, -757, -5, -1, -18, 1
101721, 101721574, -1092, 2, -759, -6, -1, -7, 1
101986, 101986574, -1087, 1, -754, -5, -1, -18, 1
102246, 102246574, -1084, 0, -757, -6, -1, -17, 1
102512, 102512574, -1081, 0, -757, -5, -1, -12, 1
102772, 102772574, -1087, 3, -757, -5, -1, -16, 1
103037, 103037574, -1089, 0, -757, -5, -1, -10, 1
103309, 103309574, -1080, -4, -765, -5, -1, -16, 1
103572, 103572574, -1090, -7, -767, -6, -1, -17, 1
103824, 103824577, -1084, 0, -775, -5, -1, -18, 1
104068, 104068579, -1092, -3, -758, -6, 0, -19, 1
104290, 104290579, -1085, 2, -760, -5, -1, -20, 1
104432, 104432574, -1086, -4, -762, -5, -1, -12, 1
104696, 104696574, -1083, 1, -746, -5, -1, -12, 1
104958, 104958574, -1087, 1, -777, -5, -1, -6, 1
105220, 105220574, -1092, -2, -760, -5, 0, -23, 1
105483, 105483574, -1082, 3, -756, -5, -2, -16, 1
105746, 105746574, -1087, 2, -751, -5, -2, -12, 1
106013, 106013574, -1090, -1, -765, -5, -1, -13, 1
106271, 106271574, -1088, 1, -752, -5, -1, -8, 1
106533, 106533574, -1086, 3, -750, -5, -2, -18, 1
106797, 106797574, -1087, -12, -777, -5, -1, -12, 1
2706638040, 1692467201, 1442890132, 343623622, -1924120056, 449753, 0, 0, 1
107059, 107059574, -1088, 1, -753, -5, -1, -10, 1
107324, 107324574, -1093, 2, -760, -5, -2, -18, 1
107583, 107583574, -1090, 0, -750, -6, 0, -22, 1
107847, 107847577, -1087, 0, -750, -5, 0, -11, 1
108112, 108112574, -1091, 7, -767, -6, -1, -10, 1
108373, 108373574, -1085, 0, -770, -5, 0, -12, 1
108633, 108633574, -1085, 2, -774, -5, -1, -13, 1
108904, 108904574, -1088, 4, -756, -5, -2, -16, 1
109159, 109159574, -1086, 0, -772, -5, -2, -15, 1
109423, 109423574, -1088, -10, -770, -6, -1, -13, 1
109683, 109683574, -1091, -11, -770, -5, -1, -18, 1
109949, 109949574, -1087, -10, -759, -6, -2, -23, 1
110212, 110212574, -1085, -6, -758, -5, -1, -9, 1
110474, 110474574, -1083, 6, -753, -5, -2, -12, 1
110733, 110733574, -1090, 4, -759, -5, -1, -8, 1
110998, 110998574, -1092, 0, -760, -6, -1, -10, 1
111259, 111259574, -1092, 1, -763, -5, -1, -10, 1
111524, 111524574, -1087, 0, -765, -5, -1, -9, 1
111796, 111796574, -1089, -2, -759, -5, -1, -13, 1
111933, 111933578, -1086, 0, -757, -5, -2, -19, 1
112250, 112250579, -1087, -1, -766, -5, -1, -19, 1
0, 0, 0, 0, 0, 0, 0, 0, 1
112716, 112716579, -1086, 1, -759, -5, -2, -23, 1
112879, 112879579, -1086, -8, -759, -5, -1, -12, 1
113110, 113110579, -1085, 4, -766, -5, -2, -14, 1
113259, 113259574, -1089, -4, -760, -5, -1, -10, 1
113521, 113521574, -1085, -4, -760, -5, -1, -15, 1
113787, 113787574, -1084, -6, -760, -5, -1, -13, 1
114047, 114047574, -1086, 8, -764, -5, -2, -11, 1
114312, 114312574, -1088, 0, -755, -5, -1, -13, 1
114585, 114585574, -1089, 1, -756, -5, -1, -23, 1
114835, 114835577, -1088, 0, -773, -6, -1, -7, 1
115097, 115097574, -1085, 0, -764, -5, 0, -18, 1
115359, 115359574, -1082, -4, -757, -5, -1, -17, 1
115621, 115621574, -1091, 6, -755, -5, -1, -17, 1
115883, 115883577, -1091, 6, -761, -6, -2, -22, 1
116147, 116147574, -1087, 6, -761, -5, -1, -23, 1
116409, 116409574, -1087, 6, -770, -6, 0, -25, 1
116671, 116671574, -1089, 1, -758, -6, -2, -14, 1
116933, 116933574, -1091, 0, -764, -5, -1, -23, 1
117196, 117196574, -1092, -3, -751, -6, 0, -20, 1
117457, 117457574, -1086, 4, -754, -5, 0, -21, 1
117721, 117721574, -1091, 0, -758, -5, -2, -12, 1
117984, 117984574, -1091, 2, -759, -6, -3, -21, 1
118246, 118246574, -1086, -4, -764, -5, -3, -27, 1
118509, 118509574, -1086, -5, -752, -5, -2, -13, 1
118772, 118772574, -1086, 3, -762, -5, -1, -20, 1
119047, 119047574, -1086, -2, -756, -5, -2, -10, 1
119310, 119310574, -1091, -2, -749, -5, -1, -31, 1
119573, 119573574, -1087, 5, -753, -5, 0, -13, 1
119824, 119824577, -1088, 4, -755, -5, -1, -25, 1
120085, 120085574, -1091, 0, -760, -5, -1, -23, 1
120346, 120346574, -1091, 4, -774, -5, -1, -19, 1
120609, 120609574, -1086, 2, -771, -5, 0, -22, 1
120871, 120871577, -1086, 2, -756, -6, -1, -21, 1
121146, 121146574, -1086, 10, -756, -6, -1, -25, 1
121396, 121396574, -1089, 6, -753, -5, -1, -15, 1
121672, 121672574, -1093, -2, -753, -5, -2, -21, 1
121923, 121923574, -1089, -5, -761, -5, -2, -23, 1
122184, 122184574, -1091, 0, -756, -5, -2, -11, 1
122447, 122447574, -1089, 0, -747, -6, -1, -16, 1
122709, 122709574, -1087, -6, -754, -5, -2, -7, 1
122851, 122851580, -1089, 9, -768, -5, -1, -11, 1
123058, 123058574, -1092, 2, -758, -5, -1, -28, 1
123321, 123321574, -1091, 0, -763, -6, -3, -24, 1
123584, 123584574, -1093, 3, -754, -5, -2, -23, 1
123846, 123846576, -1087, -7, -770, -6, 0, -13, 1
124109, 124109574, -1085, -2, -764, -6, 0, -19, 1
124372, 124372574, -1089, 2, -754, -6, -1, -22, 1
124633, 124633574, -1084, -3, -748, -5, -2, -23, 1
124904, 124904574, -1086, -5, -765, -5, -2, -16, 1
125171, 125171574, -1091, 1, -755, -6, -3, -15, 1
125421, 125421574, -1090, 0, -777, -6, 0, -24, 1
125696, 125696574, -1088, 0, -770, -6, 0, -27, 1
125946, 125946574, -1087, 12, -750, -6, 0, -20, 1
126209, 126209574, -1087, 9, -769, -5, -2, -20, 1
126472, 126472574, -1087, -6, -759, -5, -2, -15, 1
126734, 126734574, -1089, 2, -758, -6, -2, -16, 1
126999, 126999574, -1087, 3, -766, -5, -1, -12, 1
127258, 127258574, -1087, -1, -761, -6, -2, -19, 1
127522, 127522574, -1088, 10, -754, -5, -1, -15, 1
127784, 127784574, -1087, -2, -760, -5, -1, -13, 1
128060, 128060574, -1091, -13, -757, -5, -1, -16, 1
128198, 128198577, -1083, 11, -748, -5, -1, -19, 1
128506, 128506579, -1083, -8, -766, -5, 0, -22, 1
128705, 128705579, -1084, -4, -768, -5, -1, -18, 1
128966, 128966574, -1092, 0, -758, -6, 0, -23, 1
129229, 129229574, -1091, -1, -764, -5, -2, -20, 1
129491, 129491574, -1079, -7, -756, -5, 0, -7, 1
129752, 129752574, -1087, 4, -764, -5, 0, -22, 1
130014, 130014574, -1093, 2, -755, -5, 0, -15, 1
130278, 130278574, -1085, 6, -748, -5, -2, -16, 1
130412, 130412578, -1087, -1, -776, -5, 0, -16, 1
130629, 130629578, -1088, -13, -771, -6, -2, -6, 1
130856, 130856579, -1084, 7, -759, -5, -2, -17, 1
131010, 131010574, -1090, -2, -770, -6, 0, -26, 1
3875819526, 251658751, 12685756, -1706572204, 1480722841, 113288689, 0, 0, 1
131271, 131271574, -1090, 1, -765, -5, -2, -25, 1
131535, 131535574, -1091, 7, -768, -5, -1, -13, 1
131795, 131795574, -1083, 1, -772, -5, -2, -15, 1
132061, 132061574, -1084, -4, -759, -6, -1, -11, 1
132321, 132321574, -1085, -5, -754, -6, -1, -15, 1
132586, 132586574, -1086, -7, -772, -6, -3, -13, 1
132845, 132845577, -1086, -14, -775, -5, -1, -14, 1
133111, 133111574, -1085, -6, -762, -5, -3, -18, 1
133372, 133372574, -1090, 0, -757, -5, -1, -16, 1
133635, 133635574, -1087, -1, -754, -5, -1, -15, 1
133897, 133897577, -1092, 5, -778, -5, 0, -16, 1
134160, 134160574, -1085, 1, -764, -5, -1, -21, 1
134420, 134420574, -1083, 2, -760, -6, -1, -23, 1
134681, 134681574, -1086, 2, -768, -5, -1, -14, 1
134946, 134946574, -1092, -4, -762, -5, -1, -13, 1
135208, 135208574, -1091, 5, -750, -5, -3, -18, 1
0, 0, 0, 0, 0, 0, 0, 0, 1
135688, 135688574, -1089, -4, -767, -5, -1, -23, 1
135841, 135841579, -1085, -4, -755, -6, 0, -16, 1
136212, 136212574, -1090, -1, -765, -6, -1, -16, 1
136477, 136477574, -1088, 0, -759, -5, -2, -25, 1
136739, 136739574, -1090, 0, -771, -5, -2, -22, 1
137002, 137002574, -1081, 2, -757, -6, -1, -12, 1
137265, 137265574, -1081, -7, -778, -5, -3, -4, 1
137526, 137526574, -1081, 0, -767, -5, -3, -15, 1
137789, 137789203, -1089, -2, -751, -5, -2, -19, 1
138064, 138064574, -1083, -2, -761, -6, 0, -10, 1
138327, 138327574, -1085, 3, -762, -5, 0, -13, 1
0, 0, 0, 0, 0, 0, 0, 0, 1
138793, 138793490, -1091, 12, -755, -6, -1, -23, 1
138946, 138946579, -1087, 3, -758, -5, -2, -15, 1
139070, 139070577, -1089, 2, -765, -5, -1, -25, 1
139319, 139319574, -1086, 0, -768, -5, 0, -7, 1
139583, 139583574, -1084, 2, -759, -5, 0, -27, 1
139857, 139857574, -1083, 0, -759, -5, -1, -26, 1
140108, 140108574, -1083, 1, -750, -5, -2, -13, 1
140371, 140371574, -1096, 1, -767, -5, -3, -7, 1
140636, 140636574, -1088, -10, -786, -6, -2, -10, 1
140897, 140897577, -1089, -2, -764, -6, 0, -24, 1
141161, 141161574, -1088, 1, -758, -5, -1, -11, 1
141420, 141420574, -1087, 3, -764, -6, -1, -15, 1
141686, 141686574, -1086, 2, -756, -5, 0, -25, 1
141946, 141946574, -1085, 0, -758, -5, 0, -5, 1
142210, 142210574, -1091, -8, -760, -6, -1, -3, 1
142483, 142483574, -1085, -2, -755, -5, -2, -6, 1
142736, 142736574, -1084, -4, -769, -6, -1, -11, 1
142994, 142994574, -1087, 6, -758, -5, -1, 0, 1
143260, 143260574, -1090, 11, -756, -5, -2, -13, 1
143520, 143520574, -1084, 3, -748, -5, -2, -21, 1
143786, 143786574, -1087, 3, -759, -5, -1, -11, 1
144061, 144061574, -1092, 1, -759, -6, -2, -8, 1
144311, 144311574, -1091, 3, -772, -5, -2, -19, 1
0, 0, 0, 0, 0, 0, 0, 0, 1
144860, 144860579, -1084, -2, -767, -6, -1, -19, 1
6, 0, 0, 0, 0, 0, 0, 0, 1
145017, 145017577, -1084, 2, -762, -5, 0, -8, 1
145247, 145247579, -1093, 0, -766, -5, -2, -9, 1
145395, 145395574, -1094, 0, -766, -5, -1, -12, 1
145658, 145658574, -1088, -2, -775, -6, -2, -9, 1
145922, 145922574, -1090, 0, -765, -5, -1, -12, 1
146184, 146184574, -1086, 14, -756, -5, -2, -12, 1
146446, 146446574, -1092, 5, -757, -6, -3, -10, 1
146721, 146721574, -1079, 7, -769, -5, -1, -23, 1
146971, 146971574, -1092, -8, -783, -5, -1, -11, 1
147247, 147247574, -1084, -6, -774, -5, -3, -3, 1
147497, 147497574, -1069, 104, -660, -260, -54, -17, 1
147758, 147758574, -1086, 23, -657, -6, -8, -11, 1
148021, 148021574, -1092, -95, -770, -7, -21, -17, 1
0, 0, 0, 0, 0, 0, 0, 0, 1
0, 0, 0, 0, 0, 0, 0, 0, 1
0, 0, 0, 0, 0, 0, 0, 0, 1
0, 0, 0, 0, 0, 0, 0, 0, 1
0, 0, 0, 0, 0, 0, 0, 0, 1
0, 0, 0, 0, 0, 0, 0, 0, 1
0, 0, 0, 0, 0, 0, 0, 0, 1
0, 0, 0, 0, 0, 0, 0, 0, 1
1653, 1653582, -1091, -4, -761, -5, -1, 2, 1
0, 0, 0, 0, 0, 0, 0, 0, 1
2122, 2122582, -1085, -3, -763, -6, -1, -10, 1
0, 0, 0, 0, 0, 0, 0, 0, 1
2606, 2606574, -1087, -4, -770, -6, -1, -25, 1
0, 0, 0, 0, 0, 0, 0, 0, 1
3067, 3067582, -1089, 0, -759, -5, -1, -11, 1
0, 0, 0, 0, 0, 0, 0, 0, 1
3532, 3532582, -1084, 2, -763, -5, -1, -17, 1
0, 0, 0, 0, 0, 0, 0, 0, 1
4013, 4013579, -1095, -4, -753, -6, -1, -11, 1
0, 0, 0, 0, 0, 0, 0, 0, 1
4473, 4473585, -1084, -1, -769, -5, -1, -21, 1
0, 0, 0, 0, 0, 0, 0, 0, 1
4946, 4946582, -1090, 5, -757, -5, -1, -20, 1
0, 0, 0, 0, 0, 0, 0, 0, 1
5409, 5409579, -1090, -3, -761, -5, -2, -17, 1
0, 0, 0, 0, 0, 0, 0, 0, 1
5883, 5883582, -1090, -3, -753, -5, -1, -23, 1
0, 0, 0, 0, 0, 0, 0, 0, 1
6352, 6352582, -1087, -1, -760, -5, -2, -26, 1
0, 0, 0, 0, 0, 0, 0, 0, 1
6837, 6837574, -1119, 4, -600, 206, 29, -18, 1
6947, 6947577, -1092, 112, -726, 287, 66, -17, 1
7173, 7173577, -1044, -97, -973, 27, -65, -26, 1
7412, 7412576, -1043, -137, -513, -61, -3, -23, 1
7530, 7530577, -1077, -57, -692, -196, 56, -19, 1
7756, 7756574, -1025, 41, -998, -27, 87, -19, 1
7874, 7874577, -1033, 48, -1068, 20, 2, -19, 1
8109, 8109574, -1064, -278, -711, 24, -103, -25, 1
8223, 8223577, -1102, -89, -473, 10, -11, -15, 1
8451, 8451579, -1049, 203, -870, -64, 135, -15, 1
8692, 8692574, -1024, -129, -1049, 84, -74, -31, 1
0, 0, 0, 0, 0, 0, 0, 0, 1
9154, 9154574, -1063, 156, -835, -27, 73, -15, 1
3624173600, 2030043171, 12686096, -2058893739, -1270742293, 92920442, 9269, 9269577, 1
922746880, -50331652, 117440511, -452984832, -671088641, 721420299, 86355008, 9499, 1
9617, 9617577, -1054, -53, -511, -92, 60, -19, 1
9845, 9845574, -1047, 138, -957, -39, 79, -33, 1
9962, 9962577, -1028, -53, -1071, 62, -22, -29, 1
10202, 10202574, -1046, -196, -560, 8, -58, -19, 1
10439, 10439576, -1037, 154, -875, -23, 136, -21, 1
10563, 10563577, -1024, 70, -1068, 1, 48, -27, 1
10803, 10803574, -1041, -307, -876, 21, -126, -19, 1
0, 0, 0, 0, 0, 0, 0, 0, 1
11281, 11281574, -1042, 39, -1055, 18, 1, -17, 1
11519, 11519574, -1094, -43, -747, -6, 7, -26, 1
11641, 11641577, -1076, -21, -688, -5, 15, -26, 1
11884, 11884574, -1079, -30, -728, -5, -5, -10, 1
12128, 12128579, -1089, -29, -738, -5, -1, -12, 1
12250, 12250582, -1089, -30, -735, -5, -1, -19, 1
12500, 12500579, -1081, -29, -747, -5, -1, -20, 1
12742, 12742579, -1089, -34, -731, -5, -2, -20, 1
3269892, -1816482560, -967475007, 51673927, 90074434, 843384131, 1607008256, -70909756, 1
13109, 13109579, -1085, -33, -726, -5, -2, -17, 1
13357, 13357579, -1091, -32, -736, -5, -1, -15, 1
13485, 13485579, -1091, -31, -736, -5, -1, -29, 1
13721, 13721579, -1087, -40, -729, -6, -1, -24, 1
13973, 13973579, -1084, -29, -733, -5, -2, -25, 1
69199507, 14001, -1047326599, 1204180224, 1107500728, -1303349201, 3608069, -686754304, 1
14338, 14338579, -1086, -42, -736, -5, -1, -22, 1
0, 0, 0, 0, 0, 0, 0, 0, 1
14765, 14765574, -1091, -33, -733, -5, -1, -26, 1
15017, 15017574, -1087, -33, -728, -6, -1, -23, 1
15144, 15144582, -1086, -32, -736, -5, -1, -14, 1
15381, 15381722, -1087, -30, -726, -6, -1, -28, 1
15631, 15631579, -1082, -22, -740, -5, -2, -19, 1
15759, 15759583, -1086, -42, -731, -5, -1, -22, 1
15998, 15998579, -1085, -29, -728, -5, -1, -20, 1
16249, 16249574, -1086, -37, -725, -6, -2, -17, 1
16369, 16369582, -1084, -36, -729, -5, -1, -22, 1
16612, 16612574, -1089, -33, -733, -5, -1, -24, 1
16861, 16861579, -1088, -20, -738, -5, -2, -19, 1
16983, 16983582, -1088, -35, -735, -5, -1, -26, 1
17227, 17227574, -1088, -33, -716, -5, -1, -24, 1
17477, 17477581, -1090, -33, -733, -5, -1, -27, 1
17600, 17600582, -1090, -31, -733, -5, -1, -22, 1
17844, 17844574, -1086, -33, -725, -5, -1, -13, 1
18089, 18089574, -1086, -39, -735, -6, -1, -17, 1
18213, 18213582, -1086, -32, -737, -6, -1, -16, 1
18458, 18458581, -1091, -33, -726, -6, -1, -24, 1
18703, 18703579, -1081, -31, -731, -5, -2, -22, 1
18828, 18828582, -1086, -29, -730, -6, -2, -30, 1
19071, 19071579, -1084, -35, -732, -5, -1, -25, 1
19318, 19318574, -1080, -36, -733, -5, -1, -27, 1
19447, 19447584, -1086, -31, -732, -5, -1, -17, 1
19686, 19686579, -1087, -31, -741, -5, -1, -20, 1
19937, 19937579, -1086, -34, -739, -5, 0, -30, 1
20300, 20300579, -1088, -28, -726, -6, -1, -26, 1
20551, 20551579, -1083, -34, -735, -5, -2, -17, 1
20671, 20671582, -1093, -32, -736, -5, -1, -23, 1
20914, 20914574, -1082, -34, -736, -5, -1, -28, 1
21162, 21162579, -1084, -34, -736, -5, -1, -22, 1
21285, 21285582, -1090, -33, -732, -5, -1, -22, 1
21514, 21514585, -1087, -31, -735, -5, -1, -23, 1
21777, 21777579, -1086, -37, -732, -5, -1, -28, 1
22146, 22146579, -1089, -36, -732, -6, -1, -23, 1
22392, 22392790, -1081, -31, -736, -5, -2, -21, 1
22517, 22517578, -1095, -33, -732, -5, -1, -18, 1
22757, 22757574, -1085, -30, -735, -5, -2, -25, 1
23004, 23004579, -1089, -32, -728, -5, -2, -13, 1
23132, 23132582, -1082, -33, -736, -5, -1, -25, 1
23373, 23373579, -1084, -34, -740, -5, -1, -23, 1
23619, 23619579, -1089, -36, -736, -5, -1, -22, 1
23747, 23747577, -1082, -36, -734, -5, -1, -19, 1
23986, 23986579, -1088, -33, -737, -5, -2, -24, 1
24237, 24237579, -1083, -40, -725, -5, -1, -19, 1
24361, 24361582, -1082, -28, -741, -6, -1, -15, 1
1612252439, 1676345344, -71433865, -2228225, -48234497, -262145, -1, -917505, 1
24849, 24849579, -1080, -25, -731, -5, -1, -21, 1
24973, 24973582, -1082, -36, -738, -5, -1, -18, 1
25215, 25215579, -1087, -34, -740, -5, -1, -16, 1
25464, 25464581, -1089, -26, -732, -5, -2, -14, 1
25588, 25588582, -1083, -35, -736, -5, -1, -11, 1
25816, 25816582, -1089, -28, -730, -5, -1, -10, 1
26079, 26079579, -1086, -35, -735, -5, -1, -15, 1
26201, 26201582, -1081, -28, -745, -6, -1, -17, 1
26445, 26445581, -1084, -33, -737, -5, -1, -16, 1
26693, 26693579, -1086, -31, -730, -6, -1, -17, 1
26817, 26817582, -1088, -31, -732, -5, -1, -18, 1
27059, 27059579, -1081, -32, -725, -5, -1, -17, 1
27306, 27306579, -1080, -37, -736, -6, -1, -21, 1
27434, 27434584, -1087, -31, -740, -5, -1, -23, 1
27675, 27675579, -1091, -34, -738, -6, -1, -17, 1
27925, 27925579, -1082, -34, -740, -6, -1, -13, 1
28047, 28047582, -1089, -35, -735, -5, -1, -12, 1
28278, 28278582, -1087, -40, -734, -5, -1, -22, 1
28540, 28540579, -1085, -35, -734, -5, -1, -18, 1
28662, 28662582, -1084, -33, -730, -5, -1, -6, 1
28902, 28902574, -1091, -40, -726, -5, -1, -23, 1
29152, 29152574, -1079, -32, -732, -5, -1, -18, 1
29274, 29274582, -1085, -34, -734, -5, -1, -20, 1
29506, 29506585, -1085, -31, -733, -5, -1, -20, 1
29765, 29765579, -1088, -36, -733, -5, -1, -24, 1
29890, 29890578, -1087, -32, -735, -6, -1, -20, 1
30122, 30122582, -1089, -30, -747, -5, -2, -9, 1
30379, 30379964, -1091, -37, -737, -5, -1, -11, 1
30506, 30506582, -1091, -35, -734, -5, -1, -25, 1
30747, 30747579, -1088, -30, -734, -5, -1, -16, 1
30995, 30995579, -1087, -33, -743, -6, -2, -9, 1
31120, 31120582, -1085, -36, -732, -5, -1, -29, 1
31360, 31360579, -1081, -36, -736, -5, -1, -15, 1
31610, 31610579, -1085, -33, -737, -5, -1, -23, 1
31736, 31736582, -1091, -33, -731, -6, -1, -17, 1
31977, 31977579, -1082, -42, -738, -5, -1, -17, 1
32231, 32231579, -1085, -37, -738, -5, -1, -21, 1
32348, 32348582, -1085, -37, -734, -5, -1, -23, 1
32591, 32591579, -1085, -33, -733, -5, -1, -17, 1
32839, 32839574, -1085, -42, -731, -5, -2, -13, 1
32962, 32962582, -1085, -32, -723, -6, -1, -19, 1
33204, 33204574, -1092, -31, -738, -5, -1, -24, 1
33455, 33455581, -1085, -39, -730, -5, -1, -21, 1
33579, 33579582, -1086, -34, -738, -5, -2, -8, 1
33805, 33805582, -1084, -33, -732, -6, -1, -19, 1
34069, 34069579, -1085, -31, -736, -5, -1, -22, 1
34195, 34195582, -1091, -36, -740, -5, -1, -9, 1
34434, 34434581, -1086, -34, -732, -5, -1, -17, 1
0, 0, 0, 0, 0, 0, 0, 0, 1
34866, 34866579, -1086, -32, -740, -5, -1, -17, 1
35014, 35014582, -1086, -37, -731, -5, -1, -23, 1
35271, 35271579, -1091, -38, -743, -5, -1, -20, 1
0, 0, 0, 0, 0, 0, 0, 0, 1
35748, 35748582, -1080, -38, -734, -5, -1, -17, 1
36014, 36014574, -1088, -30, -734, -6, -1, -25, 1
36132, 36132578, -1085, -28, -740, -5, -3, -22, 1
36375, 36375574, -1088, -33, -733, -5, -2, -17, 1
36627, 36627579, -1080, -35, -737, -5, -2, -24, 1
36748, 36748577, -1086, -31, -732, -5, -1, -23, 1
36991, 36991579, -1086, -33, -740, -5, -1, -24, 1
37239, 37239579, -1089, -38, -734, -5, -1, -25, 1
0, 0, 0, 0, 0, 0, 0, 0, 1
37727, 37727579, -1090, -28, -734, -6, -1, -14, 1
37974, 37974574, -1074, -31, -737, -5, -1, -19, 1
38098, 38098582, -1086, -30, -741, -5, -2, -24, 1
38590, 38590579, -1089, -39, -725, -6, -1, -15, 1
