Time (ms), Time (us), accX, accY, accZ, gyroX, gyroY, gyroZ, tempC, Packet Error
55097, 55097578, -10.84, -0.11, -0.11, -0.28, -0.28, -0.28, 26.17, 0
55097, 55097578, -10.84, -0.11, -0.11, -0.28, -0.28, -0.28, 26.17, 0
0, 0, 0.0, 0.0, 0.0, 0.0, 0.0, 0.0, 0.0, 0
57112, 57112584, -10.85, -0.11, -0.11, -0.27, -0.27, -0.27, 26.08, 0
57253, 57253578, -10.85, -0.11, -0.11, -0.29, -0.29, -0.29, 26.08, 0
57543, 57543584, -10.83, -0.11, -0.11, -0.26, -0.26, -0.26, 26.08, 0
57683, 57683579, -10.91, -0.11, -0.11, -0.31, -0.31, -0.31, 26.17, 0
57973, 57973584, -10.86, -0.11, -0.11, -0.29, -0.29, -0.29, 26.08, 0
0, 0, 0.0, 0.0, 0.0, 0.0, 0.0, 0.0, 0.0, 0
58402, 58402584, -10.84, -0.11, -0.11, -0.27, -0.27, -0.27, 26.17, 0
58544, 58544578, -10.82, -0.11, -0.11, -0.27, -0.27, -0.27, 26.08, 0
58745, 58745584, -10.89, -0.11, -0.11, -0.3, -0.3, -0.3, 26.17, 0
58941, 58941584, -10.83, -0.11, -0.11, -0.31, -0.31, -0.31, 26.08, 0
59082, 59082587, -10.82, -0.11, -0.11, -0.27, -0.27, -0.27, 26.13, 0
59369, 59369584, -10.86, -0.11, -0.11, -0.28, -0.28, -0.28, 26.13, 0
0, 0, 0.0, 0.0, 0.0, 0.0, 0.0, 0.0, 0.0, 0
59807, 59807584, -10.89, -0.11, -0.11, -0.25, -0.25, -0.25, 26.17, 0
59949, 59949586, -10.87, -0.11, -0.11, -0.29, -0.29, -0.29, 26.13, 0
60237, 60237584, -10.86, -0.11, -0.11, -0.25, -0.25, -0.25, 26.03, 0
0, 0, 0.0, 0.0, 0.0, 0.0, 0.0, 0.0, 0.0, 0
60673, 60673584, -10.85, -0.11, -0.11, -0.25, -0.25, -0.25, 25.98, 0
0, 0, 0.0, 0.0, 0.0, 0.0, 0.0, 0.0, 0.0, 0
61104, 61104584, -10.9, -0.11, -0.11, -0.28, -0.28, -0.28, 26.13, 0
61242, 61242586, -10.78, -0.11, -0.11, -0.26, -0.26, -0.26, 26.08, 0
61442, 61442584, -10.84, -0.11, -0.11, -0.27, -0.27, -0.27, 26.17, 0
61643, 61643584, -10.89, -0.11, -0.11, -0.28, -0.28, -0.28, 26.08, 0
61783, 61783579, -10.84, -0.11, -0.11, -0.27, -0.27, -0.27, 26.08, 0
62078, 62078584, -10.85, -0.11, -0.11, -0.29, -0.29, -0.29, 26.13, 0
0, 0, 0.0, 0.0, 0.0, 0.0, 0.0, 0.0, 0.0, 0
62506, 62506584, -10.86, -0.11, -0.11, -0.29, -0.29, -0.29, 26.17, 0
62647, 62647578, -10.91, -0.11, -0.11, -0.27, -0.27, -0.27, 26.13, 0
62939, 62939584, -10.79, -0.11, -0.11, -0.28, -0.28, -0.28, 26.22, 0
63077, 63077586, -10.86, -0.11, -0.11, -0.29, -0.29, -0.29, 26.17, 0
63367, 63367581, -10.84, -0.11, -0.11, -0.25, -0.25, -0.25, 26.17, 0
63507, 63507579, -10.82, -0.11, -0.11, -0.29, -0.29, -0.29, 26.13, 0
63800, 63800584, -10.89, -0.11, -0.11, -0.3, -0.3, -0.3, 26.27, 0
64024, 64024584, -10.89, -0.11, -0.11, -0.28, -0.28, -0.28, 26.22, 0
0, 0, 0.0, 0.0, 0.0, 0.0, 0.0, 0.0, 0.0, 0
64452, 64452584, -10.84, -0.11, -0.11, -0.29, -0.29, -0.29, 26.36, 0
64593, 64593578, -10.84, -0.11, -0.11, -0.27, -0.27, -0.27, 26.31, 0
64886, 64886584, -10.89, -0.11, -0.11, -0.29, -0.29, -0.29, 26.22, 0
65023, 65023586, -10.82, -0.11, -0.11, -0.28, -0.28, -0.28, 26.27, 0
65315, 65315584, -10.8, -0.11, -0.11, -0.29, -0.29, -0.29, 26.22, 0
0, 0, 0.0, 0.0, 0.0, 0.0, 0.0, 0.0, 0.0, 0
65749, 65749584, -10.81, -0.11, -0.11, -0.28, -0.28, -0.28, 26.31, 0
0, 0, 0.0, 0.0, 0.0, 0.0, 0.0, 0.0, 0.0, 0
66184, 66184584, -10.82, -0.11, -0.11, -0.27, -0.27, -0.27, 26.36, 0
66322, 66322586, -10.87, -0.11, -0.11, -0.29, -0.29, -0.29, 26.17, 0
66645, 66645575, -10.9, -0.11, -0.11, -0.27, -0.27, -0.27, 26.36, 0
66772, 66772587, -10.87, -0.11, -0.11, -0.25, -0.25, -0.25, 26.31, 0
66989, 66989586, -10.88, -0.11, -0.11, -0.16, -0.16, -0.16, 26.31, 0
67280, 67280584, -10.81, -0.11, -0.11, -0.28, -0.28, -0.28, 26.27, 0
0, 0, 0.0, 0.0, 0.0, 0.0, 0.0, 0.0, 0.0, 0
67712, 67712584, -10.8, -0.11, -0.11, -0.24, -0.24, -0.24, 26.41, 0
0, 0, 0.0, 0.0, 0.0, 0.0, 0.0, 0.0, 0.0, 0
68144, 68144584, -10.83, -0.11, -0.11, -0.23, -0.23, -0.23, 26.27, 0
68286, 68286580, -10.81, -0.11, -0.11, -0.21, -0.21, -0.21, 26.36, 0
68576, 68576584, -10.8, -0.11, -0.11, -0.28, -0.28, -0.28, 26.31, 0
68714, 68714586, -10.85, -0.11, -0.11, -0.25, -0.25, -0.25, 26.27, 0
68914, 68914575, -10.89, -0.11, -0.11, -0.25, -0.25, -0.25, 26.27, 0
69116, 69116584, -10.83, -0.11, -0.11, -0.28, -0.28, -0.28, 26.27, 0
69256, 69256587, -10.91, -0.11, -0.11, -0.29, -0.29, -0.29, 26.27, 0
69545, 69545584, -10.88, -0.11, -0.11, -0.27, -0.27, -0.27, 26.36, 0
69683, 69683586, -10.9, -0.11, -0.11, -0.27, -0.27, -0.27, 26.22, 0
69887, 69887584, -10.84, -0.11, -0.11, -0.26, -0.26, -0.26, 26.27, 0
70088, 70088584, -10.84, -0.11, -0.11, -0.28, -0.28, -0.28, 26.22, 0
70225, 70225586, -10.82, -0.11, -0.11, -0.28, -0.28, -0.28, 26.17, 0
70514, 70514584, -10.88, -0.11, -0.11, -0.27, -0.27, -0.27, 26.27, 0
0, 0, 0.0, 0.0, 0.0, 0.0, 0.0, 0.0, 0.0, 0
70947, 70947584, -10.87, -0.11, -0.11, -0.29, -0.29, -0.29, 26.13, 0
0, 0, 0.0, 0.0, 0.0, 0.0, 0.0, 0.0, 0.0, 0
71377, 71377584, -10.9, -0.11, -0.11, -0.21, -0.21, -0.21, 26.08, 0
0, 0, 0.0, 0.0, 0.0, 0.0, 0.0, 0.0, 0.0, 0
71807, 71807584, -10.8, -0.11, -0.11, -0.26, -0.26, -0.26, 26.13, 0
0, 0, 0.0, 0.0, 0.0, 0.0, 0.0, 0.0, 0.0, 0
72240, 72240584, -10.86, -0.11, -0.11, -0.31, -0.31, -0.31, 26.03, 0
72381, 72381579, -10.91, -0.11, -0.11, -0.26, -0.26, -0.26, 26.08, 0
72674, 72674584, -10.86, -0.11, -0.11, -0.29, -0.29, -0.29, 26.08, 0
0, 0, 0.0, 0.0, 0.0, 0.0, 0.0, 0.0, 0.0, 0
73103, 73103584, -10.89, -0.11, -0.11, -0.28, -0.28, -0.28, 25.98, 0
0, 0, 0.0, 0.0, 0.0, 0.0, 0.0, 0.0, 0.0, 0
73533, 73533584, -10.85, -0.11, -0.11, -0.3, -0.3, -0.3, 25.98, 0
73674, 73674590, -10.83, -0.11, -0.11, -0.3, -0.3, -0.3, 25.98, 0
73964, 73964584, -10.88, -0.11, -0.11, -0.29, -0.29, -0.29, 26.03, 0
74102, 74102587, -10.85, -0.11, -0.11, -0.29, -0.29, -0.29, 26.03, 0
74394, 74394584, -10.86, -0.11, -0.11, -0.3, -0.3, -0.3, 25.98, 0
0, 0, 0.0, 0.0, 0.0, 0.0, 0.0, 0.0, 0.0, 0
74824, 74824584, -10.86, -0.11, -0.11, -0.28, -0.28, -0.28, 26.03, 0
74966, 74966586, -10.86, -0.11, -0.11, -0.28, -0.28, -0.28, 25.94, 0
75256, 75256584, -10.86, -0.11, -0.11, -0.28, -0.28, -0.28, 26.17, 0
75394, 75394587, -10.87, -0.11, -0.11, -0.29, -0.29, -0.29, 26.08, 0
0, 0, 0.0, 0.0, 0.0, 0.0, 0.0, 0.0, 0.0, 0
75806, 75806576, -10.86, -0.11, -0.11, -0.31, -0.31, -0.31, 25.98, 0
75929, 75929579, -10.82, -0.11, -0.11, -0.26, -0.26, -0.26, 25.89, 0
0, 0, 0.0, 0.0, 0.0, 0.0, 0.0, 0.0, 0.0, 0
76440, 76440584, -10.91, -0.11, -0.11, -0.29, -0.29, -0.29, 25.8, 0
76578, 76578578, -10.8, -0.11, -0.11, -0.27, -0.27, -0.27, 25.8, 0
76794, 76794579, -10.9, -0.11, -0.11, -0.24, -0.24, -0.24, 25.75, 0
77007, 77007579, -10.85, -0.11, -0.11, -0.28, -0.28, -0.28, 25.75, 0
0, 0, 0.0, 0.0, 0.0, 0.0, 0.0, 0.0, 0.0, 0
77419, 77419575, -10.89, -0.11, -0.11, -0.31, -0.31, -0.31, 25.7, 0
77620, 77620581, -10.82, -0.11, -0.11, -0.29, -0.29, -0.29, 25.8, 0
0, 0, 0.0, 0.0, 0.0, 0.0, 0.0, 0.0, 0.0, 0
78053, 78053581, -10.86, -0.11, -0.11, -0.25, -0.25, -0.25, 25.65, 0
78191, 78191587, -10.9, -0.11, -0.11, -0.28, -0.28, -0.28, 25.7, 0
0, 0, 0.0, 0.0, 0.0, 0.0, 0.0, 0.0, 0.0, 0
78604, 78604575, -10.89, -0.11, -0.11, -0.28, -0.28, -0.28, 25.61, 0
78805, 78805584, -10.88, -0.11, -0.11, -0.28, -0.28, -0.28, 25.42, 0
0, 0, 0.0, 0.0, 0.0, 0.0, 0.0, 0.0, 0.0, 0
79232, 79232584, -10.88, -0.11, -0.11, -0.29, -0.29, -0.29, 25.28, 0
79371, 79371578, -10.86, -0.11, -0.11, -0.27, -0.27, -0.27, 25.23, 0
79594, 79594581, -10.85, -0.11, -0.11, -0.27, -0.27, -0.27, 25.14, 0
79926, 79926575, -10.91, -0.11, -0.11, -0.27, -0.27, -0.27, 25.14, 0
80125, 80125584, -10.85, -0.11, -0.11, -0.29, -0.29, -0.29, 25.14, 0
80263, 80263578, -10.89, -0.11, -0.11, -0.28, -0.28, -0.28, 25.28, 0
80555, 80555584, -10.86, -0.11, -0.11, -0.29, -0.29, -0.29, 25.18, 0
0, 0, 0.0, 0.0, 0.0, 0.0, 0.0, 0.0, 0.0, 0
80985, 80985584, -10.82, -0.11, -0.11, -0.28, -0.28, -0.28, 25.14, 0
81127, 81127579, -10.87, -0.11, -0.11, -0.29, -0.29, -0.29, 25.18, 0
81420, 81420581, -10.8, -0.11, -0.11, -0.27, -0.27, -0.27, 25.09, 0
0, 0, 0.0, 0.0, 0.0, 0.0, 0.0, 0.0, 0.0, 0
81852, 81852584, -10.88, -0.11, -0.11, -0.26, -0.26, -0.26, 25.14, 0
0, 0, 0.0, 0.0, 0.0, 0.0, 0.0, 0.0, 0.0, 0
82280, 82280581, -10.8, -0.11, -0.11, -0.28, -0.28, -0.28, 24.95, 0
82421, 82421579, -10.91, -0.11, -0.11, -0.27, -0.27, -0.27, 25.04, 0
82713, 82713584, -10.79, -0.11, -0.11, -0.29, -0.29, -0.29, 24.95, 0
82851, 82851578, -10.79, -0.11, -0.11, -0.27, -0.27, -0.27, 25.0, 0
83053, 83053583, -10.85, -0.11, -0.11, -0.29, -0.29, -0.29, 24.95, 0
83254, 83254585, -10.87, -0.11, -0.11, -0.28, -0.28, -0.28, 25.0, 0
83392, 83392578, -10.86, -0.11, -0.11, -0.29, -0.29, -0.29, 24.95, 0
83609, 83609586, -10.89, -0.11, -0.11, -0.29, -0.29, -0.29, 25.04, 0
83822, 83822587, -10.84, -0.11, -0.11, -0.3, -0.3, -0.3, 25.0, 0
0, 0, 0.0, 0.0, 0.0, 0.0, 0.0, 0.0, 0.0, 0
84236, 84236576, -10.78, -0.11, -0.11, -0.28, -0.28, -0.28, 24.95, 0
84435, 84435584, -10.82, -0.11, -0.11, -0.28, -0.28, -0.28, 24.85, 0
84567, 84567587, -10.85, -0.11, -0.11, -0.29, -0.29, -0.29, 25.0, 0
84859, 84859581, -14.36, -0.14, -0.14, -0.42, -0.42, -0.42, 24.9, 0
85000, 85000579, -10.56, -0.11, -0.11, -0.22, -0.22, -0.22, 24.76, 0
85290, 85290581, -9.66, -0.1, -0.1, -0.28, -0.28, -0.28, 24.76, 0
85428, 85428579, -9.48, -0.09, -0.09, -0.28, -0.28, -0.28, 24.71, 0
85630, 85630576, -10.85, -0.11, -0.11, -0.26, -0.26, -0.26, 24.76, 0
85828, 85828585, -8.67, -0.09, -0.09, -0.14, -0.14, -0.14, 24.76, 0
85969, 85969579, -6.55, -0.07, -0.07, -0.2, -0.2, -0.2, 24.76, 0
86259, 86259581, -7.21, -0.07, -0.07, -0.18, -0.18, -0.18, 24.85, 0
86399, 86399579, -5.18, -0.05, -0.05, -0.2, -0.2, -0.2, 24.76, 0
86603, 86603575, -4.4, -0.04, -0.04, -0.31, -0.31, -0.31, 24.67, 0
86800, 86800581, -2.54, -0.03, -0.03, -0.28, -0.28, -0.28, 24.85, 0
86940, 86940579, -3.48, -0.03, -0.03, -0.3, -0.3, -0.3, 24.81, 0
87228, 87228581, -3.5, -0.04, -0.04, -0.42, -0.42, -0.42, 24.71, 0
87366, 87366579, -3.6, -0.04, -0.04, -0.32, -0.32, -0.32, 24.67, 0
87570, 87570575, -3.9, -0.04, -0.04, -0.39, -0.39, -0.39, 24.76, 0
87768, 87768581, -3.8, -0.04, -0.04, -0.29, -0.29, -0.29, 24.67, 0
87910, 87910578, -2.14, -0.02, -0.02, -0.34, -0.34, -0.34, 24.57, 0
88122, 88122580, -1.2, -0.01, -0.01, -0.28, -0.28, -0.28, 24.57, 0
88344, 88344579, -1.83, -0.02, -0.02, -0.31, -0.31, -0.31, 24.53, 0
88564, 88564578, -3.19, -0.03, -0.03, -0.32, -0.32, -0.32, 24.53, 0
88777, 88777579, -2.4, -0.02, -0.02, -0.3, -0.3, -0.3, 24.48, 0
0, 0, 0.0, 0.0, 0.0, 0.0, 0.0, 0.0, 0.0, 0
89189, 89189584, -3.48, -0.03, -0.03, -0.3, -0.3, -0.3, 24.48, 0
89387, 89387581, -3.57, -0.04, -0.04, -0.28, -0.28, -0.28, 24.48, 0
0, 0, 0.0, 0.0, 0.0, 0.0, 0.0, 0.0, 0.0, 0
89817, 89817581, -1.73, -0.02, -0.02, -0.3, -0.3, -0.3, 24.48, 0
0, 0, 0.0, 0.0, 0.0, 0.0, 0.0, 0.0, 0.0, 0
90250, 90250581, -1.38, -0.01, -0.01, -0.27, -0.27, -0.27, 24.43, 0
90388, 90388579, -1.47, -0.01, -0.01, -0.29, -0.29, -0.29, 24.48, 0
90680, 90680581, -0.94, -0.01, -0.01, -0.29, -0.29, -0.29, 24.57, 0
0, 0, 0.0, 0.0, 0.0, 0.0, 0.0, 0.0, 0.0, 0
91110, 91110581, -1.16, -0.01, -0.01, -0.31, -0.31, -0.31, 24.48, 0
91251, 91251578, -1.15, -0.01, -0.01, -0.3, -0.3, -0.3, 24.38, 0
91541, 91541581, -2.32, -0.02, -0.02, -0.37, -0.37, -0.37, 24.38, 0
0, 0, 0.0, 0.0, 0.0, 0.0, 0.0, 0.0, 0.0, 0
91976, 91976581, -4.4, -0.04, -0.04, -0.28, -0.28, -0.28, 24.43, 0
0, 0, 0.0, 0.0, 0.0, 0.0, 0.0, 0.0, 0.0, 0
92403, 92403581, -4.51, -0.05, -0.05, -0.3, -0.3, -0.3, 24.29, 0
0, 0, 0.0, 0.0, 0.0, 0.0, 0.0, 0.0, 0.0, 0
92839, 92839585, -3.11, -0.03, -0.03, -0.38, -0.38, -0.38, 24.15, 0
92981, 92981578, -2.85, -0.03, -0.03, -0.35, -0.35, -0.35, 24.2, 0
93188, 93188585, -2.86, -0.03, -0.03, -0.3, -0.3, -0.3, 24.2, 0
93405, 93405579, -3.12, -0.03, -0.03, -0.33, -0.33, -0.33, 24.2, 0
93626, 93626578, -2.06, -0.02, -0.02, -0.36, -0.36, -0.36, 24.15, 0
93839, 93839578, -1.29, -0.01, -0.01, -0.33, -0.33, -0.33, 24.15, 0
94131, 94131581, -1.71, -0.02, -0.02, -0.3, -0.3, -0.3, 24.05, 0
94268, 94268579, -1.88, -0.02, -0.02, -0.29, -0.29, -0.29, 24.2, 0
94558, 94558581, -2.65, -0.03, -0.03, -0.26, -0.26, -0.26, 24.01, 0
0, 0, 0.0, 0.0, 0.0, 0.0, 0.0, 0.0, 0.0, 0
94991, 94991581, -2.84, -0.03, -0.03, -0.29, -0.29, -0.29, 24.05, 0
95131, 95131578, -2.55, -0.03, -0.03, -0.3, -0.3, -0.3, 24.01, 0
95332, 95332576, -2.72, -0.03, -0.03, -0.31, -0.31, -0.31, 23.91, 0
95529, 95529584, -3.08, -0.03, -0.03, -0.31, -0.31, -0.31, 23.91, 0
95674, 95674581, -3.06, -0.03, -0.03, -0.28, -0.28, -0.28, 23.91, 0
95962, 95962584, -3.25, -0.03, -0.03, -0.28, -0.28, -0.28, 23.82, 0
96104, 96104579, -3.26, -0.03, -0.03, -0.29, -0.29, -0.29, 23.87, 0
96394, 96394581, -3.23, -0.03, -0.03, -0.3, -0.3, -0.3, 23.82, 0
0, 0, 0.0, 0.0, 0.0, 0.0, 0.0, 0.0, 0.0, 0
96828, 96828581, -3.17, -0.03, -0.03, -0.29, -0.29, -0.29, 23.63, 0
0, 0, 0.0, 0.0, 0.0, 0.0, 0.0, 0.0, 0.0, 0
97258, 97258581, -2.86, -0.03, -0.03, -0.31, -0.31, -0.31, 23.58, 0
0, 0, 0.0, 0.0, 0.0, 0.0, 0.0, 0.0, 0.0, 0
97688, 97688581, -1.29, -0.01, -0.01, -0.33, -0.33, -0.33, 23.44, 0
97826, 97826578, 0.19, 0.0, 0.0, -0.31, -0.31, -0.31, 23.49, 0
98116, 98116581, -0.48, -0.0, -0.0, -0.3, -0.3, -0.3, 23.4, 0
98254, 98254579, -0.43, -0.0, -0.0, -0.26, -0.26, -0.26, 23.35, 0
98453, 98453576, -0.59, -0.01, -0.01, -0.27, -0.27, -0.27, 23.44, 0
98655, 98655581, -0.84, -0.01, -0.01, -0.27, -0.27, -0.27, 23.3, 0
98796, 98796578, -0.78, -0.01, -0.01, -0.28, -0.28, -0.28, 23.16, 0
99087, 99087584, -0.86, -0.01, -0.01, -0.28, -0.28, -0.28, 23.16, 0
99225, 99225578, -0.99, -0.01, -0.01, -0.29, -0.29, -0.29, 23.11, 0
0, 0, 0.0, 0.0, 0.0, 0.0, 0.0, 0.0, 0.0, 0
99641, 99641575, -1.01, -0.01, -0.01, -0.29, -0.29, -0.29, 23.11, 0
99764, 99764579, -1.01, -0.01, -0.01, -0.28, -0.28, -0.28, 23.21, 0
0, 0, 0.0, 0.0, 0.0, 0.0, 0.0, 0.0, 0.0, 0
100267, 100267581, -1.12, -0.01, -0.01, -0.28, -0.28, -0.28, 23.11, 0
0, 0, 0.0, 0.0, 0.0, 0.0, 0.0, 0.0, 0.0, 0
100698, 100698583, -1.2, -0.01, -0.01, -0.28, -0.28, -0.28, 23.07, 0
100836, 100836577, -1.2, -0.01, -0.01, -0.3, -0.3, -0.3, 22.97, 0
101123, 101123580, -1.16, -0.01, -0.01, -0.28, -0.28, -0.28, 23.07, 0
0, 0, 0.0, 0.0, 0.0, 0.0, 0.0, 0.0, 0.0, 0
101551, 101551580, -1.17, -0.01, -0.01, -0.28, -0.28, -0.28, 22.93, 0
101695, 101695578, -1.07, -0.01, -0.01, -0.28, -0.28, -0.28, 22.88, 0
101986, 101986584, -1.18, -0.01, -0.01, -0.27, -0.27, -0.27, 22.97, 0
0, 0, 0.0, 0.0, 0.0, 0.0, 0.0, 0.0, 0.0, 0
102417, 102417580, -1.1, -0.01, -0.01, -0.27, -0.27, -0.27, 23.02, 0
0, 0, 0.0, 0.0, 0.0, 0.0, 0.0, 0.0, 0.0, 0
102848, 102848580, -1.16, -0.01, -0.01, -0.27, -0.27, -0.27, 22.93, 0
102988, 102988577, -1.18, -0.01, -0.01, -0.26, -0.26, -0.26, 22.88, 0
103277, 103277584, -1.23, -0.01, -0.01, -0.27, -0.27, -0.27, 22.88, 0
103415, 103415578, -1.14, -0.01, -0.01, -0.27, -0.27, -0.27, 22.83, 0
103707, 103707583, -1.18, -0.01, -0.01, -0.25, -0.25, -0.25, 22.83, 0
0, 0, 0.0, 0.0, 0.0, 0.0, 0.0, 0.0, 0.0, 0
104065, 104065577, -1.16, -0.01, -0.01, -0.31, -0.31, -0.31, 22.78, 0
104281, 104281586, -1.13, -0.01, -0.01, -0.29, -0.29, -0.29, 22.88, 0
104568, 104568583, -1.21, -0.01, -0.01, -0.26, -0.26, -0.26, 22.83, 0
104708, 104708585, -1.22, -0.01, -0.01, -0.27, -0.27, -0.27, 22.93, 0
0, 0, 0.0, 0.0, 0.0, 0.0, 0.0, 0.0, 0.0, 0
105124, 105124574, -1.12, -0.01, -0.01, -0.27, -0.27, -0.27, 23.07, 0
105248, 105248585, -1.27, -0.01, -0.01, -0.28, -0.28, -0.28, 22.97, 0
0, 0, 0.0, 0.0, 0.0, 0.0, 0.0, 0.0, 0.0, 0
105797, 105797576, -1.14, -0.01, -0.01, -0.26, -0.26, -0.26, 22.93, 0
105920, 105920578, -1.12, -0.01, -0.01, -0.29, -0.29, -0.29, 22.97, 0
106137, 106137577, -1.18, -0.01, -0.01, -0.27, -0.27, -0.27, 22.83, 0
106243, 106243588, -1.2, -0.01, -0.01, -0.28, -0.28, -0.28, 23.07, 0
0, 0, 0.0, 0.0, 0.0, 0.0, 0.0, 0.0, 0.0, 0
106860, 106860580, -1.24, -0.01, -0.01, -0.3, -0.3, -0.3, 22.88, 0
107001, 107001578, -1.17, -0.01, -0.01, -0.28, -0.28, -0.28, 22.93, 0
107293, 107293580, -1.13, -0.01, -0.01, -0.27, -0.27, -0.27, 23.02, 0
0, 0, 0.0, 0.0, 0.0, 0.0, 0.0, 0.0, 0.0, 0
107655, 107655577, -1.12, -0.01, -0.01, -0.27, -0.27, -0.27, 22.83, 0
0, 0, 0.0, 0.0, 0.0, 0.0, 0.0, 0.0, 0.0, 0
108161, 108161580, -1.06, -0.01, -0.01, -0.3, -0.3, -0.3, 22.93, 0
108299, 108299584, -1.1, -0.01, -0.01, -0.26, -0.26, -0.26, 22.83, 0
108588, 108588580, -1.06, -0.01, -0.01, -0.27, -0.27, -0.27, 22.74, 0
108728, 108728577, -1.12, -0.01, -0.01, -0.27, -0.27, -0.27, 22.78, 0
108928, 108928574, -1.12, -0.01, -0.01, -0.26, -0.26, -0.26, 22.69, 0
109129, 109129580, -1.1, -0.01, -0.01, -0.27, -0.27, -0.27, 22.64, 0
109266, 109266578, -1.09, -0.01, -0.01, -0.27, -0.27, -0.27, 22.78, 0
109553, 109553580, -1.05, -0.01, -0.01, -0.28, -0.28, -0.28, 22.6, 0
0, 0, 0.0, 0.0, 0.0, 0.0, 0.0, 0.0, 0.0, 0
109984, 109984580, -1.12, -0.01, -0.01, -0.27, -0.27, -0.27, 22.55, 0
110124, 110124577, -1.03, -0.01, -0.01, -0.28, -0.28, -0.28, 22.5, 0
110413, 110413580, -1.05, -0.01, -0.01, -0.27, -0.27, -0.27, 22.5, 0
0, 0, 0.0, 0.0, 0.0, 0.0, 0.0, 0.0, 0.0, 0
110846, 110846580, -1.12, -0.01, -0.01, -0.26, -0.26, -0.26, 22.45, 0
0, 0, 0.0, 0.0, 0.0, 0.0, 0.0, 0.0, 0.0, 0
111272, 111272580, -1.16, -0.01, -0.01, -0.29, -0.29, -0.29, 22.27, 0
111414, 111414578, -1.07, -0.01, -0.01, -0.25, -0.25, -0.25, 22.31, 0
111708, 111708580, -1.08, -0.01, -0.01, -0.27, -0.27, -0.27, 22.31, 0
111846, 111846578, -1.07, -0.01, -0.01, -0.29, -0.29, -0.29, 22.17, 0
0, 0, 0.0, 0.0, 0.0, 0.0, 0.0, 0.0, 0.0, 0
112261, 112261574, -1.08, -0.01, -0.01, -0.27, -0.27, -0.27, 22.13, 0
112459, 112459584, -1.05, -0.01, -0.01, -0.28, -0.28, -0.28, 22.13, 0
112587, 112587589, -0.99, -0.01, -0.01, -0.27, -0.27, -0.27, 22.08, 0
112882, 112882580, -1.03, -0.01, -0.01, -0.27, -0.27, -0.27, 22.08, 0
113023, 113023577, -1.07, -0.01, -0.01, -0.26, -0.26, -0.26, 21.98, 0
113312, 113312580, -1.14, -0.01, -0.01, -0.27, -0.27, -0.27, 22.08, 0
113450, 113450578, -1.04, -0.01, -0.01, -0.26, -0.26, -0.26, 22.03, 0
0, 0, 0.0, 0.0, 0.0, 0.0, 0.0, 0.0, 0.0, 0
113866, 113866574, -1.09, -0.01, -0.01, -0.27, -0.27, -0.27, 21.84, 0
114064, 114064580, -1.12, -0.01, -0.01, -0.27, -0.27, -0.27, 21.89, 0
0, 0, 0.0, 0.0, 0.0, 0.0, 0.0, 0.0, 0.0, 0
114422, 114422577, -1.17, -0.01, -0.01, -0.26, -0.26, -0.26, 21.89, 0
114640, 114640577, -1.15, -0.01, -0.01, -0.27, -0.27, -0.27, 21.89, 0
114929, 114929580, -1.1, -0.01, -0.01, -0.28, -0.28, -0.28, 21.94, 0
115067, 115067588, -1.08, -0.01, -0.01, -0.27, -0.27, -0.27, 21.84, 0
0, 0, 0.0, 0.0, 0.0, 0.0, 0.0, 0.0, 0.0, 0
115482, 115482574, -1.01, -0.01, -0.01, -0.25, -0.25, -0.25, 21.94, 0
115680, 115680580, -1.06, -0.01, -0.01, -0.28, -0.28, -0.28, 21.94, 0
115820, 115820578, -0.92, -0.01, -0.01, -0.26, -0.26, -0.26, 21.89, 0
116037, 116037577, -1.0, -0.01, -0.01, -0.24, -0.24, -0.24, 21.94, 0
116252, 116252578, -1.03, -0.01, -0.01, -0.26, -0.26, -0.26, 21.94, 0
116451, 116451585, -1.0, -0.01, -0.01, -0.28, -0.28, -0.28, 21.89, 0
116653, 116653580, -0.93, -0.01, -0.01, -0.25, -0.25, -0.25, 21.89, 0
116793, 116793578, -1.01, -0.01, -0.01, -0.27, -0.27, -0.27, 21.94, 0
117082, 117082580, -0.99, -0.01, -0.01, -0.26, -0.26, -0.26, 21.94, 0
117219, 117219585, -1.07, -0.01, -0.01, -0.28, -0.28, -0.28, 21.89, 0
117509, 117509580, -0.98, -0.01, -0.01, -0.27, -0.27, -0.27, 21.89, 0
0, 0, 0.0, 0.0, 0.0, 0.0, 0.0, 0.0, 0.0, 0
117942, 117942580, -0.91, -0.01, -0.01, -0.28, -0.28, -0.28, 21.84, 0
118083, 118083577, -0.93, -0.01, -0.01, -0.27, -0.27, -0.27, 21.84, 0
118373, 118373580, -0.87, -0.01, -0.01, -0.28, -0.28, -0.28, 21.94, 0
0, 0, 0.0, 0.0, 0.0, 0.0, 0.0, 0.0, 0.0, 0
118804, 118804580, -0.95, -0.01, -0.01, -0.27, -0.27, -0.27, 21.8, 0
0, 0, 0.0, 0.0, 0.0, 0.0, 0.0, 0.0, 0.0, 0
119236, 119236580, -0.97, -0.01, -0.01, -0.27, -0.27, -0.27, 21.7, 0
119374, 119374585, -0.96, -0.01, -0.01, -0.26, -0.26, -0.26, 21.84, 0
119580, 119580577, -0.91, -0.01, -0.01, -0.25, -0.25, -0.25, 21.65, 0
119895, 119895580, -0.94, -0.01, -0.01, -0.27, -0.27, -0.27, 21.8, 0
120037, 120037578, -0.92, -0.01, -0.01, -0.24, -0.24, -0.24, 21.84, 0
120327, 120327580, -0.95, -0.01, -0.01, -0.26, -0.26, -0.26, 21.84, 0
120465, 120465591, -0.93, -0.01, -0.01, -0.28, -0.28, -0.28, 21.75, 0
0, 0, 0.0, 0.0, 0.0, 0.0, 0.0, 0.0, 0.0, 0
120881, 120881581, -0.89, -0.01, -0.01, -0.27, -0.27, -0.27, 21.75, 0
121004, 121004577, -0.9, -0.01, -0.01, -0.28, -0.28, -0.28, 21.8, 0
0, 0, 0.0, 0.0, 0.0, 0.0, 0.0, 0.0, 0.0, 0
121509, 121509580, -0.94, -0.01, -0.01, -0.27, -0.27, -0.27, 21.75, 0
121649, 121649578, -0.97, -0.01, -0.01, -0.26, -0.26, -0.26, 21.89, 0
121940, 121940580, -0.96, -0.01, -0.01, -0.26, -0.26, -0.26, 21.8, 0
122078, 122078578, -0.85, -0.01, -0.01, -0.24, -0.24, -0.24, 21.75, 0
0, 0, 0.0, 0.0, 0.0, 0.0, 0.0, 0.0, 0.0, 0
122493, 122493574, -0.9, -0.01, -0.01, -0.25, -0.25, -0.25, 21.8, 0
122692, 122692580, -0.83, -0.01, -0.01, -0.26, -0.26, -0.26, 21.89, 0
0, 0, 0.0, 0.0, 0.0, 0.0, 0.0, 0.0, 0.0, 0
123048, 123048577, -0.83, -0.01, -0.01, -0.26, -0.26, -0.26, 21.89, 0
123264, 123264578, -0.2, -0.0, -0.0, 0.09, 0.09, 0.09, 21.84, 0
123553, 123553580, -1.28, -0.01, -0.01, -0.1, -0.1, -0.1, 21.75, 0
123691, 123691577, -1.83, -0.02, -0.02, -0.07, -0.07, -0.07, 21.8, 0
0, 0, 0.0, 0.0, 0.0, 0.0, 0.0, 0.0, 0.0, 0
124107, 124107574, -2.32, -0.02, -0.02, -0.27, -0.27, -0.27, 21.84, 0
124306, 124306580, -2.69, -0.03, -0.03, -0.28, -0.28, -0.28, 21.84, 0
124444, 124444577, -3.09, -0.03, -0.03, -0.28, -0.28, -0.28, 21.8, 0
124736, 124736859, -2.86, -0.03, -0.03, -0.26, -0.26, -0.26, 21.7, 0
124879, 124879577, -3.05, -0.03, -0.03, -0.25, -0.25, -0.25, 21.7, 0
125169, 125169584, -2.74, -0.03, -0.03, -0.26, -0.26, -0.26, 21.89, 0
0, 0, 0.0, 0.0, 0.0, 0.0, 0.0, 0.0, 0.0, 0
125597, 125597580, -2.88, -0.03, -0.03, -0.27, -0.27, -0.27, 21.94, 0
125739, 125739729, -2.87, -0.03, -0.03, -0.25, -0.25, -0.25, 21.7, 0
126029, 126029580, -3.28, -0.03, -0.03, -0.28, -0.28, -0.28, 21.8, 0
126168, 126168577, -3.08, -0.03, -0.03, -0.27, -0.27, -0.27, 21.7, 0
126370, 126370581, -3.15, -0.03, -0.03, -0.27, -0.27, -0.27, 21.75, 0
126510, 126510577, -3.24, -0.03, -0.03, -0.26, -0.26, -0.26, 21.75, 0
126795, 126795580, -2.96, -0.03, -0.03, -0.33, -0.33, -0.33, 21.75, 0
126939, 126939587, -3.32, -0.03, -0.03, -0.28, -0.28, -0.28, 21.8, 0
127226, 127226580, -2.92, -0.03, -0.03, -0.21, -0.21, -0.21, 21.8, 0
127367, 127367581, -2.96, -0.03, -0.03, -0.26, -0.26, -0.26, 21.84, 0
127657, 127657580, -2.91, -0.03, -0.03, -0.25, -0.25, -0.25, 21.84, 0
0, 0, 0.0, 0.0, 0.0, 0.0, 0.0, 0.0, 0.0, 0
128085, 128085580, -2.97, -0.03, -0.03, -0.28, -0.28, -0.28, 21.75, 0
0, 0, 0.0, 0.0, 0.0, 0.0, 0.0, 0.0, 0.0, 0
128518, 128518580, -2.95, -0.03, -0.03, -0.26, -0.26, -0.26, 21.94, 0
128658, 128658577, -2.9, -0.03, -0.03, -0.26, -0.26, -0.26, 21.94, 0
128945, 128945580, -2.86, -0.03, -0.03, -0.26, -0.26, -0.26, 21.94, 0
129083, 129083577, -2.84, -0.03, -0.03, -0.28, -0.28, -0.28, 21.89, 0
129374, 129374580, -2.97, -0.03, -0.03, -0.27, -0.27, -0.27, 21.89, 0
0, 0, 0.0, 0.0, 0.0, 0.0, 0.0, 0.0, 0.0, 0
129802, 129802580, -2.99, -0.03, -0.03, -0.26, -0.26, -0.26, 21.98, 0
129945, 129945581, -2.98, -0.03, -0.03, -0.27, -0.27, -0.27, 22.03, 0
130236, 130236580, -2.98, -0.03, -0.03, -0.27, -0.27, -0.27, 22.03, 0
130374, 130374577, -3.0, -0.03, -0.03, -0.29, -0.29, -0.29, 21.98, 0
0, 0, 0.0, 0.0, 0.0, 0.0, 0.0, 0.0, 0.0, 0
130791, 130791574, -2.99, -0.03, -0.03, -0.31, -0.31, -0.31, 21.94, 0
130915, 130915578, -3.29, -0.03, -0.03, -0.31, -0.31, -0.31, 21.98, 0
131129, 131129577, -3.32, -0.03, -0.03, -0.29, -0.29, -0.29, 22.03, 0
131418, 131418580, -2.7, -0.03, -0.03, -0.29, -0.29, -0.29, 22.13, 0
0, 0, 0.0, 0.0, 0.0, 0.0, 0.0, 0.0, 0.0, 0
131851, 131851580, -2.65, -0.03, -0.03, -0.27, -0.27, -0.27, 22.08, 0
0, 0, 0.0, 0.0, 0.0, 0.0, 0.0, 0.0, 0.0, 0
132278, 132278580, -2.53, -0.03, -0.03, -0.27, -0.27, -0.27, 22.22, 0
132419, 132419577, -2.43, -0.02, -0.02, -0.27, -0.27, -0.27, 22.17, 0
132714, 132714580, -2.45, -0.02, -0.02, -0.27, -0.27, -0.27, 22.22, 0
0, 0, 0.0, 0.0, 0.0, 0.0, 0.0, 0.0, 0.0, 0
133139, 133139580, -4.17, -0.04, -0.04, -0.32, -0.32, -0.32, 22.17, 0
133277, 133277577, -4.25, -0.04, -0.04, -0.29, -0.29, -0.29, 22.22, 0
133566, 133566580, -3.3, -0.03, -0.03, -0.3, -0.3, -0.3, 22.22, 0
0, 0, 0.0, 0.0, 0.0, 0.0, 0.0, 0.0, 0.0, 0
133996, 133996580, -1.8, -0.02, -0.02, -0.3, -0.3, -0.3, 22.27, 0
134135, 134135577, -1.82, -0.02, -0.02, -0.23, -0.23, -0.23, 22.17, 0
134424, 134424580, -1.4, -0.01, -0.01, -0.28, -0.28, -0.28, 22.27, 0
0, 0, 0.0, 0.0, 0.0, 0.0, 0.0, 0.0, 0.0, 0
134856, 134856580, -0.88, -0.01, -0.01, -0.32, -0.32, -0.32, 22.31, 0
0, 0, 0.0, 0.0, 0.0, 0.0, 0.0, 0.0, 0.0, 0
135286, 135286580, -0.27, -0.0, -0.0, -0.27, -0.27, -0.27, 22.36, 0
135427, 135427578, -0.41, -0.0, -0.0, -0.24, -0.24, -0.24, 22.31, 0
135720, 135720580, -0.46, -0.0, -0.0, -0.26, -0.26, -0.26, 22.41, 0
135858, 135858577, -0.68, -0.01, -0.01, -0.23, -0.23, -0.23, 22.31, 0
136149, 136149580, -0.84, -0.01, -0.01, -0.28, -0.28, -0.28, 22.36, 0
0, 0, 0.0, 0.0, 0.0, 0.0, 0.0, 0.0, 0.0, 0
136572, 136572580, -0.75, -0.01, -0.01, -0.26, -0.26, -0.26, 22.27, 0
136716, 136716588, -1.06, -0.01, -0.01, -0.32, -0.32, -0.32, 22.31, 0
137008, 137008580, -1.53, -0.02, -0.02, -0.27, -0.27, -0.27, 22.31, 0
137146, 137146577, -1.38, -0.01, -0.01, -0.27, -0.27, -0.27, 22.45, 0
0, 0, 0.0, 0.0, 0.0, 0.0, 0.0, 0.0, 0.0, 0
137563, 137563585, -1.92, -0.02, -0.02, -0.29, -0.29, -0.29, 22.41, 0
137686, 137686577, -2.1, -0.02, -0.02, -0.29, -0.29, -0.29, 22.27, 0
0, 0, 0.0, 0.0, 0.0, 0.0, 0.0, 0.0, 0.0, 0
138190, 138190580, -1.96, -0.02, -0.02, -0.37, -0.37, -0.37, 22.41, 0
138331, 138331577, -2.84, -0.03, -0.03, -0.39, -0.39, -0.39, 22.45, 0
138549, 138549589, -3.52, -0.04, -0.04, -0.26, -0.26, -0.26, 22.27, 0
138766, 138766578, -3.36, -0.03, -0.03, -0.22, -0.22, -0.22, 22.22, 0
139055, 139055580, -2.46, -0.02, -0.02, -0.2, -0.2, -0.2, 22.31, 0
139195, 139195578, -1.82, -0.02, -0.02, -0.21, -0.21, -0.21, 22.36, 0
139484, 139484580, -1.62, -0.02, -0.02, -0.29, -0.29, -0.29, 22.27, 0
0, 0, 0.0, 0.0, 0.0, 0.0, 0.0, 0.0, 0.0, 0
139918, 139918580, -1.81, -0.02, -0.02, -0.28, -0.28, -0.28, 22.27, 0
140056, 140056577, -2.03, -0.02, -0.02, -0.29, -0.29, -0.29, 22.22, 0
0, 0, 0.0, 0.0, 0.0, 0.0, 0.0, 0.0, 0.0, 0
140471, 140471574, -2.11, -0.02, -0.02, -0.27, -0.27, -0.27, 22.27, 0
140596, 140596577, -2.04, -0.02, -0.02, -0.27, -0.27, -0.27, 22.13, 0
0, 0, 0.0, 0.0, 0.0, 0.0, 0.0, 0.0, 0.0, 0
141103, 141103580, -2.07, -0.02, -0.02, -0.29, -0.29, -0.29, 22.22, 0
141241, 141241589, -2.02, -0.02, -0.02, -0.26, -0.26, -0.26, 22.22, 0
141532, 141532580, -2.07, -0.02, -0.02, -0.28, -0.28, -0.28, 22.22, 0
141673, 141673577, -2.08, -0.02, -0.02, -0.28, -0.28, -0.28, 22.22, 0
141964, 141964580, -2.02, -0.02, -0.02, -0.27, -0.27, -0.27, 22.13, 0
0, 0, 0.0, 0.0, 0.0, 0.0, 0.0, 0.0, 0.0, 0
142400, 142400580, -1.95, -0.02, -0.02, -0.26, -0.26, -0.26, 22.13, 0
0, 0, 0.0, 0.0, 0.0, 0.0, 0.0, 0.0, 0.0, 0
142832, 142832580, -2.07, -0.02, -0.02, -0.27, -0.27, -0.27, 22.17, 0
0, 0, 0.0, 0.0, 0.0, 0.0, 0.0, 0.0, 0.0, 0
143258, 143258580, -2.06, -0.02, -0.02, -0.27, -0.27, -0.27, 22.27, 0
143399, 143399578, -2.03, -0.02, -0.02, -0.25, -0.25, -0.25, 22.22, 0
143618, 143618578, -1.97, -0.02, -0.02, -0.27, -0.27, -0.27, 22.17, 0
0, 0, 0.0, 0.0, 0.0, 0.0, 0.0, 0.0, 0.0, 0
144123, 144123580, -1.64, -0.02, -0.02, -0.26, -0.26, -0.26, 22.17, 0
0, 0, 0.0, 0.0, 0.0, 0.0, 0.0, 0.0, 0.0, 0
144551, 144551580, -1.55, -0.02, -0.02, -0.28, -0.28, -0.28, 22.22, 0
144695, 144695578, -1.52, -0.02, -0.02, -0.27, -0.27, -0.27, 22.22, 0
144986, 144986580, -1.63, -0.02, -0.02, -0.26, -0.26, -0.26, 22.31, 0
145124, 145124583, -1.46, -0.01, -0.01, -0.26, -0.26, -0.26, 22.27, 0
145413, 145413584, -1.65, -0.02, -0.02, -0.27, -0.27, -0.27, 22.27, 0
0, 0, 0.0, 0.0, 0.0, 0.0, 0.0, 0.0, 0.0, 0
145844, 145844580, -2.41, -0.02, -0.02, -0.14, -0.14, -0.14, 22.22, 0
145984, 145984578, -3.11, -0.03, -0.03, -0.22, -0.22, -0.22, 22.27, 0
0, 0, 0.0, 0.0, 0.0, 0.0, 0.0, 0.0, 0.0, 0
146508, 146508574, -3.81, -0.04, -0.04, -0.25, -0.25, -0.25, 22.13, 0
146706, 146706580, -3.87, -0.04, -0.04, -0.27, -0.27, -0.27, 22.17, 0
146846, 146846577, -3.9, -0.04, -0.04, -0.27, -0.27, -0.27, 22.13, 0
147064, 147064592, -3.74, -0.04, -0.04, -0.29, -0.29, -0.29, 22.17, 0
147280, 147280577, -3.76, -0.04, -0.04, -0.25, -0.25, -0.25, 21.98, 0
147484, 147484574, -3.75, -0.04, -0.04, -0.26, -0.26, -0.26, 22.08, 0
147681, 147681580, -3.66, -0.04, -0.04, -0.27, -0.27, -0.27, 22.03, 0
147822, 147822577, -3.72, -0.04, -0.04, -0.26, -0.26, -0.26, 21.98, 0
148114, 148114580, -3.64, -0.04, -0.04, -0.27, -0.27, -0.27, 21.98, 0
148252, 148252577, -3.7, -0.04, -0.04, -0.28, -0.28, -0.28, 22.03, 0
148466, 148466577, -3.91, -0.04, -0.04, -0.28, -0.28, -0.28, 21.98, 0
148697, 148697585, -4.54, -0.05, -0.05, -0.19, -0.19, -0.19, 21.94, 0
148894, 148894580, -5.03, -0.05, -0.05, -0.21, -0.21, -0.21, 21.8, 0
0, 0, 0.0, 0.0, 0.0, 0.0, 0.0, 0.0, 0.0, 0
149324, 149324580, -5.08, -0.05, -0.05, -0.27, -0.27, -0.27, 21.8, 0
149449, 149449581, -5.06, -0.05, -0.05, -0.26, -0.26, -0.26, 21.65, 0
149667, 149667574, -5.19, -0.05, -0.05, -0.25, -0.25, -0.25, 21.65, 0
149868, 149868580, -5.23, -0.05, -0.05, -0.27, -0.27, -0.27, 21.56, 0
150005, 150005589, -5.15, -0.05, -0.05, -0.26, -0.26, -0.26, 21.56, 0
150298, 150298580, -5.16, -0.05, -0.05, -0.25, -0.25, -0.25, 21.56, 0
0, 0, 0.0, 0.0, 0.0, 0.0, 0.0, 0.0, 0.0, 0
150659, 150659578, -4.91, -0.05, -0.05, -0.28, -0.28, -0.28, 21.47, 0
0, 0, 0.0, 0.0, 0.0, 0.0, 0.0, 0.0, 0.0, 0
151168, 151168579, -2.51, -0.03, -0.03, -0.3, -0.3, -0.3, 21.56, 0
151306, 151306588, -2.36, -0.02, -0.02, -0.38, -0.38, -0.38, 21.37, 0
151528, 151528577, -1.43, -0.01, -0.01, -0.36, -0.36, -0.36, 21.47, 0
0, 0, 0.0, 0.0, 0.0, 0.0, 0.0, 0.0, 0.0, 0
152033, 152033579, -3.22, -0.03, -0.03, -0.47, -0.47, -0.47, 21.42, 0
152173, 152173577, -4.43, -0.04, -0.04, -0.44, -0.44, -0.44, 21.37, 0
152460, 152460579, -3.34, -0.03, -0.03, -0.33, -0.33, -0.33, 21.37, 0
152593, 152593577, -2.77, -0.03, -0.03, -0.3, -0.3, -0.3, 21.28, 0
0, 0, 0.0, 0.0, 0.0, 0.0, 0.0, 0.0, 0.0, 0
153094, 153094579, -0.62, -0.01, -0.01, -0.38, -0.38, -0.38, 21.28, 0
153235, 153235576, -0.13, -0.0, -0.0, -0.38, -0.38, -0.38, 21.37, 0
153450, 153450577, -0.33, -0.0, -0.0, -0.42, -0.42, -0.42, 21.37, 0
153674, 153674584, -2.14, -0.02, -0.02, -0.49, -0.49, -0.49, 21.42, 0
153874, 153874579, -3.21, -0.03, -0.03, -0.51, -0.51, -0.51, 21.42, 0
154012, 154012576, -3.93, -0.04, -0.04, -0.52, -0.52, -0.52, 21.47, 0
0, 0, 0.0, 0.0, 0.0, 0.0, 0.0, 0.0, 0.0, 0
154424, 154424573, -2.6, -0.03, -0.03, -0.31, -0.31, -0.31, 21.42, 0
0, 0, 0.0, 0.0, 0.0, 0.0, 0.0, 0.0, 0.0, 0
154861, 154861579, -1.48, -0.01, -0.01, -0.29, -0.29, -0.29, 21.37, 0
154999, 154999576, -0.62, -0.01, -0.01, -0.26, -0.26, -0.26, 21.51, 0
155289, 155289579, -0.62, -0.01, -0.01, -0.24, -0.24, -0.24, 21.42, 0
155426, 155426576, -0.33, -0.0, -0.0, -0.27, -0.27, -0.27, 21.47, 0
155632, 155632584, -0.74, -0.01, -0.01, -0.24, -0.24, -0.24, 21.42, 0
155831, 155831579, -0.66, -0.01, -0.01, -0.26, -0.26, -0.26, 21.33, 0
0, 0, 0.0, 0.0, 0.0, 0.0, 0.0, 0.0, 0.0, 0
156267, 156267579, -0.7, -0.01, -0.01, -0.26, -0.26, -0.26, 21.47, 0
156404, 156404584, -0.71, -0.01, -0.01, -0.26, -0.26, -0.26, 21.47, 0
156611, 156611573, -0.72, -0.01, -0.01, -0.26, -0.26, -0.26, 21.47, 0
156809, 156809579, -0.71, -0.01, -0.01, -0.27, -0.27, -0.27, 21.37, 0
156950, 156950588, -0.67, -0.01, -0.01, -0.27, -0.27, -0.27, 21.37, 0
157240, 157240579, -0.7, -0.01, -0.01, -0.26, -0.26, -0.26, 21.33, 0
157378, 157378584, -0.7, -0.01, -0.01, -0.28, -0.28, -0.28, 21.37, 0
157595, 157595576, -0.69, -0.01, -0.01, -0.26, -0.26, -0.26, 21.28, 0
0, 0, 0.0, 0.0, 0.0, 0.0, 0.0, 0.0, 0.0, 0
158100, 158100579, -0.73, -0.01, -0.01, -0.27, -0.27, -0.27, 21.37, 0
0, 0, 0.0, 0.0, 0.0, 0.0, 0.0, 0.0, 0.0, 0
158455, 158455577, -0.73, -0.01, -0.01, -0.28, -0.28, -0.28, 21.47, 0
158762, 158762583, -0.76, -0.01, -0.01, -0.26, -0.26, -0.26, 21.37, 0
158903, 158903577, -0.75, -0.01, -0.01, -0.28, -0.28, -0.28, 21.37, 0
159190, 159190579, -0.67, -0.01, -0.01, -0.25, -0.25, -0.25, 21.42, 0
159330, 159330583, -0.74, -0.01, -0.01, -0.25, -0.25, -0.25, 21.42, 0
159557, 159557576, -0.71, -0.01, -0.01, -0.24, -0.24, -0.24, 21.47, 0
159793, 159793576, -0.75, -0.01, -0.01, -0.25, -0.25, -0.25, 21.47, 0
160086, 160086583, -0.7, -0.01, -0.01, -0.26, -0.26, -0.26, 21.56, 0
160224, 160224577, -0.76, -0.01, -0.01, -0.27, -0.27, -0.27, 21.51, 0
160512, 160512579, -0.73, -0.01, -0.01, -0.26, -0.26, -0.26, 21.47, 0
160658, 160658576, -0.73, -0.01, -0.01, -0.25, -0.25, -0.25, 21.51, 0
160947, 160947579, -0.66, -0.01, -0.01, -0.27, -0.27, -0.27, 21.42, 0
0, 0, 0.0, 0.0, 0.0, 0.0, 0.0, 0.0, 0.0, 0
161302, 161302576, -0.69, -0.01, -0.01, -0.25, -0.25, -0.25, 21.42, 0
0, 0, 0.0, 0.0, 0.0, 0.0, 0.0, 0.0, 0.0, 0
161747, 161747587, -0.78, -0.01, -0.01, -0.26, -0.26, -0.26, 21.37, 0
161959, 161959576, -0.68, -0.01, -0.01, -0.27, -0.27, -0.27, 21.23, 0
0, 0, 0.0, 0.0, 0.0, 0.0, 0.0, 0.0, 0.0, 0
162371, 162371584, -0.68, -0.01, -0.01, -0.24, -0.24, -0.24, 21.42, 0
162464, 162464582, -0.64, -0.01, -0.01, -0.25, -0.25, -0.25, 21.37, 0
162797, 162797579, -0.73, -0.01, -0.01, -0.25, -0.25, -0.25, 21.37, 0
0, 0, 0.0, 0.0, 0.0, 0.0, 0.0, 0.0, 0.0, 0
163229, 163229579, -0.71, -0.01, -0.01, -0.26, -0.26, -0.26, 21.37, 0
0, 0, 0.0, 0.0, 0.0, 0.0, 0.0, 0.0, 0.0, 0
163701, 163701584, -0.74, -0.01, -0.01, -0.29, -0.29, -0.29, 21.28, 0
163827, 163827587, -0.69, -0.01, -0.01, -0.26, -0.26, -0.26, 21.42, 0
164040, 164040584, -0.66, -0.01, -0.01, -0.25, -0.25, -0.25, 21.33, 0
0, 0, 0.0, 0.0, 0.0, 0.0, 0.0, 0.0, 0.0, 0
164455, 164455573, -0.75, -0.01, -0.01, -0.27, -0.27, -0.27, 21.37, 0
164603, 164603584, -0.69, -0.01, -0.01, -0.27, -0.27, -0.27, 21.23, 0
164803, 164803583, -0.66, -0.01, -0.01, -0.24, -0.24, -0.24, 21.33, 0
0, 0, 0.0, 0.0, 0.0, 0.0, 0.0, 0.0, 0.0, 0
165231, 165231579, -0.72, -0.01, -0.01, -0.26, -0.26, -0.26, 21.47, 0
0, 0, 0.0, 0.0, 0.0, 0.0, 0.0, 0.0, 0.0, 0
165706, 165706573, -0.73, -0.01, -0.01, -0.25, -0.25, -0.25, 21.47, 0
165832, 165832577, -0.7, -0.01, -0.01, -0.26, -0.26, -0.26, 21.42, 0
166045, 166045576, -0.66, -0.01, -0.01, -0.24, -0.24, -0.24, 21.42, 0
0, 0, 0.0, 0.0, 0.0, 0.0, 0.0, 0.0, 0.0, 0
166458, 166458580, -0.73, -0.01, -0.01, -0.27, -0.27, -0.27, 21.47, 0
166590, 166590577, -0.74, -0.01, -0.01, -0.27, -0.27, -0.27, 21.51, 0
166884, 166884579, -0.79, -0.01, -0.01, -0.28, -0.28, -0.28, 21.51, 0
167022, 167022577, -0.69, -0.01, -0.01, -0.27, -0.27, -0.27, 21.42, 0
167312, 167312579, -0.73, -0.01, -0.01, -0.27, -0.27, -0.27, 21.42, 0
167560, 167560579, -0.73, -0.01, -0.01, -0.27, -0.27, -0.27, 21.42, 0
167772, 167772579, -0.7, -0.01, -0.01, -0.29, -0.29, -0.29, 21.56, 0
167913, 167913586, -0.7, -0.01, -0.01, -0.27, -0.27, -0.27, 21.42, 0
168202, 168202579, -0.7, -0.01, -0.01, -0.28, -0.28, -0.28, 21.42, 0
168339, 168339576, -0.64, -0.01, -0.01, -0.27, -0.27, -0.27, 21.51, 0
168534, 168534583, -0.69, -0.01, -0.01, -0.25, -0.25, -0.25, 21.42, 0
168679, 168679576, -0.66, -0.01, -0.01, -0.26, -0.26, -0.26, 21.47, 0
0, 0, 0.0, 0.0, 0.0, 0.0, 0.0, 0.0, 0.0, 0
169112, 169112576, -0.71, -0.01, -0.01, -0.26, -0.26, -0.26, 21.51, 0
0, 0, 0.0, 0.0, 0.0, 0.0, 0.0, 0.0, 0.0, 0
169551, 169551585, -0.7, -0.01, -0.01, -0.26, -0.26, -0.26, 21.51, 0
169763, 169763576, -0.68, -0.01, -0.01, -0.28, -0.28, -0.28, 21.51, 0
0, 0, 0.0, 0.0, 0.0, 0.0, 0.0, 0.0, 0.0, 0
170164, 170164582, -0.69, -0.01, -0.01, -0.26, -0.26, -0.26, 21.51, 0
170305, 170305576, -0.7, -0.01, -0.01, -0.29, -0.29, -0.29, 21.56, 0
0, 0, 0.0, 0.0, 0.0, 0.0, 0.0, 0.0, 0.0, 0
170741, 170741577, -0.75, -0.01, -0.01, -0.27, -0.27, -0.27, 21.56, 0
0, 0, 0.0, 0.0, 0.0, 0.0, 0.0, 0.0, 0.0, 0
171245, 171245582, -0.73, -0.01, -0.01, -0.26, -0.26, -0.26, 21.61, 0
171383, 171383576, -0.72, -0.01, -0.01, -0.28, -0.28, -0.28, 21.65, 0
171664, 171664579, -0.71, -0.01, -0.01, -0.27, -0.27, -0.27, 21.65, 0
171803, 171803577, -0.75, -0.01, -0.01, -0.26, -0.26, -0.26, 21.61, 0
172097, 172097579, -0.69, -0.01, -0.01, -0.26, -0.26, -0.26, 21.7, 0
172238, 172238584, -0.7, -0.01, -0.01, -0.28, -0.28, -0.28, 21.61, 0
172450, 172450576, -0.71, -0.01, -0.01, -0.28, -0.28, -0.28, 21.61, 0
172679, 172679580, -0.72, -0.01, -0.01, -0.28, -0.28, -0.28, 21.65, 0
172802, 172802576, -0.68, -0.01, -0.01, -0.28, -0.28, -0.28, 21.75, 0
0, 0, 0.0, 0.0, 0.0, 0.0, 0.0, 0.0, 0.0, 0
173431, 173431582, -0.72, -0.01, -0.01, -0.26, -0.26, -0.26, 21.65, 0
173572, 173572579, -0.73, -0.01, -0.01, -0.26, -0.26, -0.26, 21.75, 0
173710, 173710577, -0.72, -0.01, -0.01, -0.25, -0.25, -0.25, 21.61, 0
174004, 174004579, -0.73, -0.01, -0.01, -0.25, -0.25, -0.25, 21.7, 0
174145, 174145577, -0.72, -0.01, -0.01, -0.28, -0.28, -0.28, 21.7, 0
174437, 174437579, -0.68, -0.01, -0.01, -0.27, -0.27, -0.27, 21.75, 0
174598, 174598585, -0.7, -0.01, -0.01, -0.26, -0.26, -0.26, 21.75, 0
0, 0, 0.0, 0.0, 0.0, 0.0, 0.0, 0.0, 0.0, 0
175101, 175101583, -0.74, -0.01, -0.01, -0.28, -0.28, -0.28, 21.61, 0
175239, 175239577, -0.68, -0.01, -0.01, -0.27, -0.27, -0.27, 21.65, 0
175452, 175452585, -0.71, -0.01, -0.01, -0.27, -0.27, -0.27, 21.75, 0
175674, 175674573, -0.69, -0.01, -0.01, -0.27, -0.27, -0.27, 21.7, 0
175874, 175874579, -0.69, -0.01, -0.01, -0.28, -0.28, -0.28, 21.7, 0
176010, 176010584, -0.74, -0.01, -0.01, -0.29, -0.29, -0.29, 21.56, 0
176301, 176301581, -0.73, -0.01, -0.01, -0.26, -0.26, -0.26, 21.75, 0
0, 0, 0.0, 0.0, 0.0, 0.0, 0.0, 0.0, 0.0, 0
0, 0, 0.0, 0.0, 0.0, 0.0, 0.0, 0.0, 0.0, 0
176977, 176977573, -0.68, -0.01, -0.01, -0.27, -0.27, -0.27, 21.61, 0
177104, 177104577, -0.75, -0.01, -0.01, -0.25, -0.25, -0.25, 21.65, 0
0, 0, 0.0, 0.0, 0.0, 0.0, 0.0, 0.0, 0.0, 0
177729, 177729579, -0.7, -0.01, -0.01, -0.29, -0.29, -0.29, 21.7, 0
0, 0, 0.0, 0.0, 0.0, 0.0, 0.0, 0.0, 0.0, 0
178163, 178163583, -0.71, -0.01, -0.01, -0.28, -0.28, -0.28, 21.65, 0
178300, 178300576, -0.73, -0.01, -0.01, -0.28, -0.28, -0.28, 21.7, 0
178523, 178523577, -0.72, -0.01, -0.01, -0.27, -0.27, -0.27, 21.7, 0
178735, 178735576, -0.72, -0.01, -0.01, -0.26, -0.26, -0.26, 21.8, 0
0, 0, 0.0, 0.0, 0.0, 0.0, 0.0, 0.0, 0.0, 0
179153, 179153582, -0.69, -0.01, -0.01, -0.25, -0.25, -0.25, 21.7, 0
179276, 179276576, -0.75, -0.01, -0.01, -0.28, -0.28, -0.28, 21.84, 0
0, 0, 0.0, 0.0, 0.0, 0.0, 0.0, 0.0, 0.0, 0
179712, 179712576, -0.76, -0.01, -0.01, -0.25, -0.25, -0.25, 21.7, 0
179926, 179926576, -0.65, -0.01, -0.01, -0.28, -0.28, -0.28, 21.75, 0
180216, 180216579, -0.68, -0.01, -0.01, -0.26, -0.26, -0.26, 21.75, 0
180353, 180353584, -0.7, -0.01, -0.01, -0.29, -0.29, -0.29, 21.89, 0
180460, 180460577, -0.73, -0.01, -0.01, -0.27, -0.27, -0.27, 21.75, 0
180707, 180707585, -0.7, -0.01, -0.01, -0.28, -0.28, -0.28, 21.84, 0
180907, 180907573, -0.73, -0.01, -0.01, -0.29, -0.29, -0.29, 22.03, 0
181104, 181104582, -0.73, -0.01, -0.01, -0.28, -0.28, -0.28, 21.89, 0
181246, 181246587, -0.71, -0.01, -0.01, -0.27, -0.27, -0.27, 21.75, 0
181445, 181445577, -0.7, -0.01, -0.01, -0.29, -0.29, -0.29, 21.84, 0
181682, 181682577, -0.7, -0.01, -0.01, -0.27, -0.27, -0.27, 21.75, 0
181974, 181974579, -0.7, -0.01, -0.01, -0.27, -0.27, -0.27, 21.8, 0
182112, 182112585, -0.68, -0.01, -0.01, -0.27, -0.27, -0.27, 21.8, 0
0, 0, 0.0, 0.0, 0.0, 0.0, 0.0, 0.0, 0.0, 0
182514, 182514579, -0.72, -0.01, -0.01, -0.25, -0.25, -0.25, 21.8, 0
182658, 182658576, -0.73, -0.01, -0.01, -0.28, -0.28, -0.28, 21.75, 0
0, 0, 0.0, 0.0, 0.0, 0.0, 0.0, 0.0, 0.0, 0
183163, 183163582, -0.68, -0.01, -0.01, -0.28, -0.28, -0.28, 21.8, 0
183301, 183301577, -0.67, -0.01, -0.01, -0.25, -0.25, -0.25, 21.84, 0
183526, 183526576, -0.69, -0.01, -0.01, -0.27, -0.27, -0.27, 21.84, 0
183815, 183815579, -0.74, -0.01, -0.01, -0.25, -0.25, -0.25, 21.89, 0
183956, 183956576, -0.67, -0.01, -0.01, -0.29, -0.29, -0.29, 21.84, 0
184171, 184171576, -0.71, -0.01, -0.01, -0.27, -0.27, -0.27, 21.8, 0
0, 0, 0.0, 0.0, 0.0, 0.0, 0.0, 0.0, 0.0, 0
184681, 184681573, -0.68, -0.01, -0.01, -0.27, -0.27, -0.27, 21.84, 0
184879, 184879579, -0.71, -0.01, -0.01, -0.25, -0.25, -0.25, 21.84, 0
185016, 185016577, -0.71, -0.01, -0.01, -0.26, -0.26, -0.26, 21.65, 0
