Time (ms), accX, accY, accZ, gyroX, gyroY, gyroZ, tempC, Packet Error
338004, 0.21, 0.0, 0.0, 0.0, 0.0, 0.019.25, 0
339857, 0.21, 0.0, 0.0, 0.0, 0.0, 0.019.3, 0
340148, 0.19, 0.0, 0.0, 0.0, 0.0, 0.019.25, 0
0, 0.0, 0.0, 0.0, 0.0, 0.0, 0.00.0, 0
340615, 0.17, 0.0, 0.0, 0.0, 0.0, 0.019.16, 0
340827, 0.24, 0.0, 0.0, 0.0, 0.0, 0.019.25, 0
341027, 0.16, 0.0, 0.0, 0.0, 0.0, 0.019.21, 0
341153, 0.17, 0.0, 0.0, 0.0, 0.0, 0.019.25, 0
341369, 65552, 653, -12562, -772, -20482, 01921, 1
341655, 0.13, 0.0, 0.0, 0.0, 0.0, 0.019.21, 0
0, 0.0, 0.0, 0.0, 0.0, 0.0, 0.00.0, 0
342010, 0.22, 0.0, 0.0, 0.0, 0.0, 0.019.16, 0
342301, 0.17, 0.0, 0.0, 0.0, 0.0, 0.019.25, 0
0, 0.0, 0.0, 0.0, 0.0, 0.0, 0.00.0, 0
342766, 0.17, 0.0, 0.0, 0.0, 0.0, 0.019.3, 0
343053, 0.2, 0.0, 0.0, 0.0, 0.0, 0.019.25, 0
0, 0.0, 0.0, 0.0, 0.0, 0.0, 0.00.0, 0
343523, 0.17, 0.0, 0.0, 0.0, 0.0, 0.019.4, 0
343810, 0.24, 0.0, 0.0, 0.0, 0.0, 0.019.54, 0
344025, 0.21, 0.0, 0.0, 0.0, 0.0, 0.019.35, 0
0, 0.0, 0.0, 0.0, 0.0, 0.0, 0.00.0, 0
344489, 0.19, 0.0, 0.0, 0.0, 0.0, 0.019.35, 0
344780, 0.21, 0.0, 0.0, 0.0, 0.0, 0.019.54, 0
345132, 0.21, 0.0, 0.0, 0.0, 0.0, 0.019.49, 0
345359, 0.2, 0.0, 0.0, 0.0, 0.0, 0.019.58, 0
345645, 0.2, 0.0, 0.0, 0.0, 0.0, 0.019.63, 0
345861, 0.17, 0.0, 0.0, 0.0, 0.0, 0.019.49, 0
0, 0.0, 0.0, 0.0, 0.0, 0.0, 0.00.0, 0
346213, 0.22, 0.0, 0.0, 0.0, 0.0, 0.019.54, 0
346428, 0.18, 0.0, 0.0, 0.0, 0.0, 0.019.68, 0
346716, 0.26, 0.0, 0.0, 0.0, 0.0, 0.019.73, 0
346931, 0.21, 0.0, 0.0, 0.0, 0.0, 0.019.73, 0
0, 0.0, 0.0, 0.0, 0.0, 0.0, 0.00.0, 0
347400, 0.17, 0.0, 0.0, 0.0, 0.0, 0.019.77, 0
347686, 0.2, 0.0, 0.0, 0.0, 0.0, 0.019.82, 0
0, 0.0, 0.0, 0.0, 0.0, 0.0, 0.00.0, 0
348038, 0.2, 0.0, 0.0, 0.0, 0.0, 0.019.82, 0
348325, 0.14, 0.0, 0.0, 0.0, 0.0, 0.019.82, 0
348542, 0.16, 0.0, 0.0, 0.0, 0.0, 0.019.82, 0
348679, 0.17, 0.0, 0.0, 0.0, 0.0, 0.019.87, 0
348881, 0.23, 0.0, 0.0, 0.0, 0.0, 0.019.91, 0
349004, 0.2, 0.0, 0.0, 0.0, 0.0, 0.019.96, 0
349220, 0.28, 0.0, 0.0, -0.01, -0.01, -0.0119.91, 0
349508, 0.24, 0.0, 0.0, 0.0, 0.0, 0.019.96, 0
349723, 0.22, 0.0, 0.0, 0.0, 0.0, 0.019.96, 0
0, 0.0, 0.0, 0.0, 0.0, 0.0, 0.00.0, 0
350255, 0.21, 0.0, 0.0, 0.0, 0.0, 0.020.01, 0
350385, 0.22, 0.0, 0.0, 0.0, 0.0, 0.020.01, 0
350581, 0.17, 0.0, 0.0, 0.0, 0.0, 0.020.2, 0
350706, 0.17, 0.0, 0.0, 0.0, 0.0, 0.020.05, 0
350998, 0.2, 0.0, 0.0, 0.0, 0.0, 0.020.05, 0
351136, 0.25, 0.0, 0.0, 0.0, 0.0, 0.020.15, 0
351330, 0.17, 0.0, 0.0, 0.0, 0.0, 0.020.15, 0
351532, 0.22, 0.0, 0.0, 0.0, 0.0, 0.020.1, 0
351668, 0.19, 0.0, 0.0, 0.0, 0.0, 0.020.15, 0
351865, 0.23, 0.0, 0.0, 0.0, 0.0, 0.020.2, 0
352062, 0.22, 0.0, 0.0, 0.0, 0.0, 0.020.1, 0
0, 0.0, 0.0, 0.0, 0.0, 0.0, 0.00.0, 0
352414, 0.18, 0.0, 0.0, 0.0, 0.0, 0.020.29, 0
352707, 0.23, 0.0, 0.0, 0.0, 0.0, 0.020.34, 0
0, 0.0, 0.0, 0.0, 0.0, 0.0, 0.00.0, 0
353058, 0.18, 0.0, 0.0, 0.0, 0.0, 0.020.29, 0
353273, 0.18, 0.0, 0.0, 0.0, 0.0, 0.020.15, 0
353565, 0.23, 0.0, 0.0, 0.0, 0.0, 0.020.34, 0
353703, 0.2, 0.0, 0.0, 0.0, 0.0, 0.020.34, 0
353897, 0.22, 0.0, 0.0, 0.0, 0.0, 0.020.34, 0
354097, 0.19, 0.0, 0.0, 0.0, 0.0, 0.020.38, 0
2048, 3735552, 150994944, 0, 0, 0, 01610612736, 1
354561, 0.15, 0.0, 0.0, 0.0, 0.0, 0.020.34, 0
354852, 0.19, 0.0, 0.0, 0.0, 0.0, 0.020.43, 0
0, 0.0, 0.0, 0.0, 0.0, 0.0, 0.00.0, 0
355317, 0.14, 0.0, 0.0, 0.0, 0.0, 0.020.43, 0
355610, 0.21, 0.0, 0.0, 0.0, 0.0, 0.020.43, 0
0, 0.0, 0.0, 0.0, 0.0, 0.0, 0.00.0, 0
356079, 0.19, 0.0, 0.0, -0.01, -0.01, -0.0120.38, 0
356363, 0.24, 0.0, 0.0, 0.0, 0.0, 0.020.38, 0
356582, 0.19, 0.0, 0.0, 0.0, 0.0, 0.020.38, 0
356720, 21, 524, -276, -4, -20482, 02038, 1
358963, 65559, 653, -272, -772, -20482, 02034, 1
357116, 0.24, 0.0, 0.0, 0.0, 0.0, 0.020.38, 0
357253, 0.17, 0.0, 0.0, 0.0, 0.0, 0.020.43, 0
357453, 0.17, 0.0, 0.0, 0.0, 0.0, 0.020.34, 0
357651, 0.21, 0.0, 0.0, 0.0, 0.0, 0.020.29, 0
0, 0.0, 0.0, 0.0, 0.0, 0.0, 0.00.0, 0
358114, 0.23, 0.0, 0.0, 0.0, 0.0, 0.020.43, 0
358404, 0.21, 0.0, 0.0, 0.0, 0.0, 0.020.34, 0
0, 0.0, 0.0, 0.0, 0.0, 0.0, 0.00.0, 0
358756, 0.14, 0.0, 0.0, 0.0, 0.0, 0.020.38, 0
359046, 0.22, 0.0, 0.0, 0.0, 0.0, 0.020.34, 0
359184, 0.18, 0.0, 0.0, 0.0, 0.0, 0.020.38, 0
359380, 0.21, 0.0, 0.0, 0.0, 0.0, 0.020.29, 0
359502, 0.17, 0.0, 0.0, 0.0, 0.0, 0.020.34, 0
359796, 0.2, 0.0, 0.0, 0.0, 0.0, 0.020.29, 0
0, 0.0, 0.0, 0.0, 0.0, 0.0, 0.00.0, 0
360148, 0.22, 0.0, 0.0, 0.0, 0.0, 0.020.29, 0
360365, 0.22, 0.0, 0.0, 0.0, 0.0, 0.020.34, 0
360577, 0.28, 0.0, 0.0, 0.0, 0.0, 0.020.29, 0
360774, 0.21, 0.0, 0.0, 0.0, 0.0, 0.020.24, 0
360896, 0.26, 0.0, 0.0, 0.0, 0.0, 0.020.29, 0
361110, 0.21, 0.0, 0.0, 0.0, 0.0, 0.020.38, 0
361312, 0.16, 0.0, 0.0, 0.0, 0.0, 0.020.29, 0
361440, 0.23, 0.0, 0.0, 0.0, 0.0, 0.020.29, 0
361653, 0.18, 0.0, 0.0, 0.0, 0.0, 0.020.29, 0
361865, 0.17, 0.0, 0.0, 0.0, 0.0, 0.020.38, 0
362064, 0.17, 0.0, 0.0, 0.0, 0.0, 0.020.15, 0
362262, 0.16, 0.0, 0.0, 0.0, 0.0, 0.020.34, 0
0, 0.0, 0.0, 0.0, 0.0, 0.0, 0.00.0, 0
362799, 0.17, 0.0, 0.0, -0.01, -0.01, -0.0120.29, 0
362935, 0.25, 0.0, 0.0, 0.0, 0.0, 0.020.24, 0
363137, 0.18, 0.0, 0.0, 0.0, 0.0, 0.020.29, 0
363245, 0.19, 0.0, 0.0, 0.0, 0.0, 0.020.24, 0
0, 0.0, 0.0, 0.0, 0.0, 0.0, 0.00.0, 0
361808, 19, 524, -12570, -4, -20482, 02024, 1
363979, 0.2, 0.0, 0.0, 0.0, 0.0, 0.020.2, 0
364270, 0.21, 0.0, 0.0, 0.0, 0.0, 0.020.2, 0
364401, 0.22, 0.0, 0.0, 0.0, 0.0, 0.020.1, 0
364687, 0.2, 0.0, 0.0, 0.0, 0.0, 0.020.2, 0
0, 0.0, 0.0, 0.0, 0.0, 0.0, 0.00.0, 0
365155, 0.21, 0.0, 0.0, 0.0, 0.0, 0.020.24, 0
365370, 0.15, 0.0, 0.0, 0.0, 0.0, 0.020.2, 0
365659, 0.19, 0.0, 0.0, 0.0, 0.0, 0.020.15, 0
0, 0.0, 0.0, 0.0, 0.0, 0.0, 0.00.0, 0
366012, 0.23, 0.0, 0.0, 0.0, 0.0, 0.020.05, 0
366227, 0.18, 0.0, 0.0, 0.0, 0.0, 0.020.1, 0
366517, 0.19, 0.0, 0.0, 0.0, 0.0, 0.020.15, 0
366731, 0.2, 0.0, 0.0, 0.0, 0.0, 0.020.1, 0
0, 0.0, 0.0, 0.0, 0.0, 0.0, 0.00.0, 0
367196, 0.24, 0.0, 0.0, 0.0, 0.0, 0.020.15, 0
367410, 0.18, 0.0, 0.0, 0.0, 0.0, 0.020.01, 0
367610, 0.21, 0.0, 0.0, 0.0, 0.0, 0.020.01, 0
367732, 0.2, 0.0, 0.0, 0.0, 0.0, 0.020.05, 0
367945, 0.15, 0.0, 0.0, 0.0, 0.0, 0.020.1, 0
368140, 20, -2147483064, -12553, -787204, -20482, 01052639, 1
368280, 0.18, 0.0, 0.0, 0.0, 0.0, 0.020.01, 0
368478, 0.2, 0.0, 0.0, 0.0, 0.0, 0.020.01, 0
368603, 0.24, 0.0, 0.0, 0.0, 0.0, 0.019.96, 0
368894, 19, 642, -273, -5, -20482, 02001, 1
0, 0.0, 0.0, 0.0, 0.0, 0.0, 0.00.0, 0
369245, 0.17, 0.0, 0.0, 0.0, 0.0, 0.020.01, 0
369534, 0.16, 0.0, 0.0, 0.0, 0.0, 0.020.05, 0
369672, 0.22, 0.0, 0.0, 0.0, 0.0, 0.020.01, 0
369869, 0.22, 0.0, 0.0, 0.0, 0.0, 0.019.87, 0
370067, 0.22, 0.0, 0.0, 0.0, 0.0, 0.019.96, 0
370207, 0.24, 0.0, 0.0, 0.0, 0.0, 0.019.96, 0
370409, 0.16, 0.0, 0.0, 0.0, 0.0, 0.019.91, 0
370532, 0.18, 0.0, 0.0, 0.0, 0.0, 0.019.91, 0
370746, 0.19, 0.0, 0.0, 0.0, 0.0, 0.019.96, 0
370958, 0.22, 0.0, 0.0, 0.0, 0.0, 0.019.91, 0
371157, 0.19, 0.0, 0.0, 0.0, 0.0, 0.019.96, 0
371351, 0.24, 0.0, 0.0, 0.0, 0.0, 0.019.82, 0
0, 0.0, 0.0, 0.0, 0.0, 0.0, 0.00.0, 0
371706, 0.16, 0.0, 0.0, 0.0, 0.0, 0.019.82, 0
371996, 0.2, 0.0, 0.0, 0.0, 0.0, 0.019.77, 0
0, 0.0, 0.0, 0.0, 0.0, 0.0, 0.00.0, 0
372536, 0.2, 0.0, 0.0, 0.0, 0.0, 0.019.77, 0
372751, 0.18, 0.0, 0.0, 0.0, 0.0, 0.019.73, 0
0, 0.0, 0.0, 0.0, 0.0, 0.0, 0.00.0, 0
373217, 0.18, 0.0, 0.0, 0.0, 0.0, 0.019.68, 0
373504, 0.2, 0.0, 0.0, 0.0, 0.0, 0.019.82, 0
0, 0.0, 0.0, 0.0, 0.0, 0.0, 0.00.0, 0
373856, 0.21, 0.0, 0.0, 0.0, 0.0, 0.019.63, 0
374149, 0.17, 0.0, 0.0, 0.0, 0.0, 0.019.58, 0
0, 0.0, 0.0, 0.0, 0.0, 0.0, 0.00.0, 0
374500, 0.15, 0.0, 0.0, 0.0, 0.0, 0.019.58, 0
374714, 0.2, 0.0, 0.0, 0.0, 0.0, 0.019.63, 0
374926, 0.22, 0.0, 0.0, 0.0, 0.0, 0.019.58, 0
375217, 0.22, 0.0, 0.0, 0.0, 0.0, 0.019.63, 0
0, 0.0, 0.0, 0.0, 0.0, 0.0, 0.00.0, 0
375688, 0.2, 0.0, 0.0, 0.0, 0.0, 0.019.58, 0
375975, 0.19, 0.0, 0.0, 0.0, 0.0, 0.019.58, 0
0, 0.0, 0.0, 0.0, 0.0, 0.0, 0.00.0, 0
376513, 0.2, 0.0, 0.0, 0.0, 0.0, 0.019.54, 0
0, 0.0, 0.0, 0.0, 0.0, 0.0, 0.00.0, 0
376979, 0.23, 0.0, 0.0, 0.0, 0.0, 0.019.58, 0
0, 0.0, 0.0, 0.0, 0.0, 0.0, 0.00.0, 0
377525, 0.17, 0.0, 0.0, 0.0, 0.0, 0.019.54, 0
377814, 0.22, 0.0, 0.0, 0.0, 0.0, 0.019.44, 0
377956, 0.22, 0.0, 0.0, 0.0, 0.0, 0.019.63, 0
0, 0.0, 0.0, 0.0, 0.0, 0.0, 0.00.0, 0
378496, 0.19, 0.0, 0.0, 0.0, 0.0, 0.019.63, 0
378789, 0.23, 0.0, 0.0, 0.0, 0.0, 0.019.54, 0
0, 0.0, 0.0, 0.0, 0.0, 0.0, 0.00.0, 0
379260, 0.25, 0.0, 0.0, 0.0, 0.0, 0.019.58, 0
379476, 0.18, 0.0, 0.0, 0.0, 0.0, 0.019.68, 0
379769, 0.21, 0.0, 0.0, 0.0, 0.0, 0.019.68, 0
379906, 0.17, 0.0, 0.0, 0.0, 0.0, 0.019.68, 0
380107, 0.21, 0.0, 0.0, 0.0, 0.0, 0.019.73, 0
380230, 0.24, 0.0, 0.0, 0.0, 0.0, 0.019.73, 0
380525, 0.18, 0.0, 0.0, 0.0, 0.0, 0.019.68, 0
0, 0.0, 0.0, 0.0, 0.0, 0.0, 0.00.0, 0
380989, 0.23, 0.0, 0.0, 0.0, 0.0, 0.019.73, 0
381210, 0.19, 0.0, 0.0, 0.0, 0.0, 0.019.77, 0
381428, 0.18, 0.0, 0.0, 0.0, 0.0, 0.019.73, 0
381717, 0.18, 0.0, 0.0, 0.0, 0.0, 0.019.91, 0
381934, 0.2, 0.0, 0.0, 0.0, 0.0, 0.019.87, 0
0, 0.0, 0.0, 0.0, 0.0, 0.0, 0.00.0, 0
382397, 0.21, 0.0, 0.0, 0.0, 0.0, 0.019.96, 0
382689, 0.16, 0.0, 0.0, 0.0, 0.0, 0.019.96, 0
0, 0.0, 0.0, 0.0, 0.0, 0.0, 0.00.0, 0
383157, 0.19, 0.0, 0.0, 0.0, 0.0, 0.020.1, 0
383373, 0.22, 0.0, 0.0, 0.0, 0.0, 0.020.05, 0
383590, 0.19, 0.0, 0.0, 0.0, 0.0, 0.020.01, 0
383879, 0.25, 0.0, 0.0, 0.0, 0.0, 0.020.1, 0
384096, 0.18, 0.0, 0.0, 0.0, 0.0, 0.020.15, 0
0, 0.0, 0.0, 0.0, 0.0, 0.0, 0.00.0, 0
384566, 0.29, 0.0, 0.0, 0.0, 0.0, 0.020.05, 0
384858, 0.21, 0.0, 0.0, 0.0, 0.0, 0.020.15, 0
0, 0.0, 0.0, 0.0, 0.0, 0.0, 0.00.0, 0
385398, 0.17, 0.0, 0.0, 0.0, 0.0, 0.020.05, 0
385535, 0.24, 0.0, 0.0, 0.0, 0.0, 0.020.15, 0
385736, 0.21, 0.0, 0.0, 0.0, 0.0, 0.020.1, 0
385859, 0.21, 0.0, 0.0, 0.0, 0.0, 0.020.15, 0
386076, 0.15, 0.0, 0.0, 0.0, 0.0, 0.020.1, 0
386363, 0.18, 0.0, 0.0, 0.0, 0.0, 0.020.1, 0
386509, 0.27, 0.0, 0.0, 0.0, 0.0, 0.020.1, 0
386726, 0.19, 0.0, 0.0, 0.0, 0.0, 0.020.2, 0
387015, 0.19, 0.0, 0.0, 0.0, 0.0, 0.020.05, 0
387232, 0.13, 0.0, 0.0, 0.0, 0.0, 0.020.01, 0
0, 0.0, 0.0, 0.0, 0.0, 0.0, 0.00.0, 0
387682, 0.18, 0.0, 0.0, 0.0, 0.0, 0.020.05, 0
387883, 0.16, 0.0, 0.0, 0.0, 0.0, 0.019.96, 0
388021, 0.17, 0.0, 0.0, 0.0, 0.0, 0.020.05, 0
388223, 0.23, 0.0, 0.0, 0.0, 0.0, 0.019.96, 0
388349, 0.18, 0.0, 0.0, 0.0, 0.0, 0.019.96, 0
388566, 0.22, 0.0, 0.0, 0.0, 0.0, 0.019.96, 0
388779, 0.27, 0.0, 0.0, 0.0, 0.0, 0.020.01, 0
389072, 0.22, 0.0, 0.0, 0.0, 0.0, 0.020.01, 0
0, 0.0, 0.0, 0.0, 0.0, 0.0, 0.00.0, 0
389541, 0.19, 0.0, 0.0, 0.0, 0.0, 0.019.91, 0
389830, 0.19, 0.0, 0.0, 0.0, 0.0, 0.020.01, 0
389961, 0.17, 0.0, 0.0, 0.0, 0.0, 0.020.01, 0
390162, 0.21, 0.0, 0.0, 0.0, 0.0, 0.019.96, 0
390363, 0.17, 0.0, 0.0, 0.0, 0.0, 0.020.01, 0
390502, 0.24, 0.0, 0.0, 0.0, 0.0, 0.019.91, 0
390702, 0.15, 0.0, 0.0, 0.0, 0.0, 0.019.96, 0
390826, 0.18, 0.0, 0.0, 0.0, 0.0, 0.020.01, 0
391047, 0.17, 0.0, 0.0, 0.0, 0.0, 0.020.01, 0
391339, 0.22, 0.0, 0.0, 0.0, 0.0, 0.020.01, 0
391558, 0.18, 0.0, 0.0, 0.0, 0.0, 0.020.01, 0
391696, 0.21, 0.0, 0.0, 0.0, 0.0, 0.020.1, 0
391899, 0.2, 0.0, 0.0, 0.0, 0.0, 0.020.1, 0
392022, 0.18, 0.0, 0.0, 0.0, 0.0, 0.020.01, 0
392238, 0.16, 0.0, 0.0, 0.0, 0.0, 0.020.1, 0
392459, 0.22, 0.0, 0.0, 0.0, 0.0, 0.020.01, 0
392748, 0.17, 0.0, 0.0, 0.0, 0.0, 0.020.01, 0
0, 0.0, 0.0, 0.0, 0.0, 0.0, 0.00.0, 0
393216, 0.2, 0.0, 0.0, 0.0, 0.0, 0.019.96, 0
393506, 0.18, 0.0, 0.0, 0.0, 0.0, 0.019.96, 0
393648, 0.19, 0.0, 0.0, 0.0, 0.0, 0.019.96, 0
393864, 0.24, 0.0, 0.0, 0.0, 0.0, 0.020.05, 0
394153, 0.19, 0.0, 0.0, 0.0, 0.0, 0.020.1, 0
0, 0.0, 0.0, 0.0, 0.0, 0.0, 0.00.0, 0
394505, 0.18, 0.0, 0.0, 0.0, 0.0, 0.020.05, 0
394797, 0.23, 0.0, 0.0, 0.0, 0.0, 0.020.05, 0
0, 0.0, 0.0, 0.0, 0.0, 0.0, 0.00.0, 0
395261, 0.2, 0.0, 0.0, 0.0, 0.0, 0.020.1, 0
395558, 0.2, 0.0, 0.0, 0.0, 0.0, 0.020.05, 0
0, 0.0, 0.0, 0.0, 0.0, 0.0, 0.00.0, 0
396026, 0.2, 0.0, 0.0, 0.0, 0.0, 0.020.01, 0
396315, 0.22, 0.0, 0.0, 0.0, 0.0, 0.020.1, 0
396455, 0.2, 0.0, 0.0, 0.0, 0.0, 0.020.01, 0
396669, 0.19, 0.0, 0.0, 0.0, 0.0, 0.019.96, 0
396868, 0.25, 0.0, 0.0, 0.0, 0.0, 0.020.01, 0
396991, 0.17, 0.0, 0.0, 0.0, 0.0, 0.020.01, 0
397213, 0.18, 0.0, 0.0, -0.01, -0.01, -0.0119.91, 0
397429, 0.28, 0.0, 0.0, 0.0, 0.0, 0.020.05, 0
397718, 0.21, 0.0, 0.0, 0.0, 0.0, 0.020.05, 0
0, 0.0, 0.0, 0.0, 0.0, 0.0, 0.00.0, 0
398186, 0.17, 0.0, 0.0, 0.0, 0.0, 0.020.01, 0
0, 0.0, 0.0, 0.0, 0.0, 0.0, 0.00.0, 0
398711, 0.21, 0.0, 0.0, 0.0, 0.0, 0.020.01, 0
398839, 0.17, 0.0, 0.0, 0.0, 0.0, 0.019.96, 0
399131, 0.19, 0.0, 0.0, 0.0, 0.0, 0.019.96, 0
0, 0.0, 0.0, 0.0, 0.0, 0.0, 0.00.0, 0
399598, 0.16, 0.0, 0.0, 0.0, 0.0, 0.019.87, 0
399887, 0.17, 0.0, 0.0, 0.0, 0.0, 0.019.96, 0
400104, 0.23, 0.0, 0.0, 0.0, 0.0, 0.019.91, 0
400241, 0.2, 0.0, 0.0, 0.0, 0.0, 0.020.01, 0
400444, 0.16, 0.0, 0.0, 0.0, 0.0, 0.019.91, 0
400568, 0.2, 0.0, 0.0, 0.0, 0.0, 0.019.77, 0
400787, 0.27, 0.0, 0.0, 0.0, 0.0, 0.019.82, 0
401004, 0.17, 0.0, 0.0, 0.0, 0.0, 0.019.77, 0
401293, 0.24, 0.0, 0.0, 0.0, 0.0, 0.019.77, 0
401510, 0.23, 0.0, 0.0, 0.0, 0.0, 0.019.82, 0
401647, 0.24, 0.0, 0.0, 0.0, 0.0, 0.019.82, 0
401848, 0.21, 0.0, 0.0, 0.0, 0.0, 0.019.77, 0
401971, 0.23, 0.0, 0.0, 0.0, 0.0, 0.019.73, 0
402262, 0.17, 0.0, 0.0, -0.01, -0.01, -0.0119.73, 0
0, 0.0, 0.0, 0.0, 0.0, 0.0, 0.00.0, 0
402712, 0.2, 0.0, 0.0, 0.0, 0.0, 0.019.77, 0
402839, 0.14, 0.0, 0.0, 0.0, 0.0, 0.019.73, 0
403052, 0.23, 0.0, 0.0, 0.0, 0.0, 0.019.68, 0
403262, 0.2, 0.0, 0.0, 0.0, 0.0, 0.019.73, 0
403461, 0.24, 0.0, 0.0, 0.0, 0.0, 0.019.68, 0
403588, 0.22, 0.0, 0.0, 0.0, 0.0, 0.019.77, 0
403801, 0.24, 0.0, 0.0, 0.0, 0.0, 0.019.73, 0
404094, 0.24, 0.0, 0.0, 0.0, 0.0, 0.019.68, 0
0, 0.0, 0.0, 0.0, 0.0, 0.0, 0.00.0, 0
404548, 0.21, 0.0, 0.0, 0.0, 0.0, 0.019.73, 0
404675, 0.17, 0.0, 0.0, 0.0, 0.0, 0.019.58, 0
404888, 0.19, 0.0, 0.0, 0.0, 0.0, 0.019.73, 0
405180, 0.23, 0.0, 0.0, 0.0, 0.0, 0.019.73, 0
0, 0.0, 0.0, 0.0, 0.0, 0.0, 0.00.0, 0
405638, 0.18, 0.0, 0.0, 0.0, 0.0, 0.019.58, 0
405761, 0.25, 0.0, 0.0, 0.0, 0.0, 0.019.63, 0
405978, 0.2, 0.0, 0.0, 0.0, 0.0, 0.019.58, 0
406270, 0.18, 0.0, 0.0, 0.0, 0.0, 0.019.58, 0
0, 0.0, 0.0, 0.0, 0.0, 0.0, 0.00.0, 0
406723, 0.22, 0.0, 0.0, 0.0, 0.0, 0.019.63, 0
406847, 0.16, 0.0, 0.0, 0.0, 0.0, 0.019.68, 0
0, 0.0, 0.0, 0.0, 0.0, 0.0, 0.00.0, 0
407393, 0.24, 0.0, 0.0, 0.0, 0.0, 0.019.63, 0
407682, 0.18, 0.0, 0.0, 0.0, 0.0, 0.019.63, 0
0, 0.0, 0.0, 0.0, 0.0, 0.0, 0.00.0, 0
408151, 0.19, 0.0, 0.0, 0.0, 0.0, 0.019.58, 0
0, 0.0, 0.0, 0.0, 0.0, 0.0, 0.00.0, 0
408694, 0.23, 0.0, 0.0, 0.0, 0.0, 0.019.63, 0
408911, 0.18, 0.0, 0.0, 0.0, 0.0, 0.019.63, 0
409200, 0.19, 0.0, 0.0, 0.0, 0.0, 0.019.58, 0
409344, 0.18, 0.0, 0.0, 0.0, 0.0, 0.019.58, 0
409561, 0.23, 0.0, 0.0, 0.0, 0.0, 0.019.63, 0
409853, 0.2, 0.0, 0.0, 0.0, 0.0, 0.019.63, 0
410070, 0.21, 0.0, 0.0, 0.0, 0.0, 0.019.49, 0
410207, 0.21, 0.0, 0.0, 0.0, 0.0, 0.019.58, 0
410408, 0.21, 0.0, 0.0, 0.0, 0.0, 0.019.68, 0
410531, 0.2, 0.0, 0.0, 0.0, 0.0, 0.019.63, 0
410822, 0.2, 0.0, 0.0, 0.0, 0.0, 0.019.63, 0
0, 0.0, 0.0, 0.0, 0.0, 0.0, 0.00.0, 0
411361, 0.19, 0.0, 0.0, 0.0, 0.0, 0.019.58, 0
411503, 0.19, 0.0, 0.0, 0.0, 0.0, 0.019.58, 0
411720, 0.19, 0.0, 0.0, 0.0, 0.0, 0.019.73, 0
412009, 0.17, 0.0, 0.0, 0.0, 0.0, 0.019.63, 0
412226, 0.15, 0.0, 0.0, 0.0, 0.0, 0.019.58, 0
0, 0.0, 0.0, 0.0, 0.0, 0.0, 0.00.0, 0
412677, 0.23, 0.0, 0.0, 0.0, 0.0, 0.019.73, 0
412804, 0.25, 0.0, 0.0, 0.0, 0.0, 0.019.68, 0
413017, 0.2, 0.0, 0.0, 0.0, 0.0, 0.019.63, 0
413221, 0.21, 0.0, 0.0, 0.0, 0.0, 0.019.68, 0
413347, 0.19, 0.0, 0.0, 0.0, 0.0, 0.019.68, 0
413637, 0.19, 0.0, 0.0, 0.0, 0.0, 0.019.63, 0
413775, 0.2, 0.0, 0.0, 0.0, 0.0, 0.019.63, 0
413968, 0.18, 0.0, 0.0, 0.0, 0.0, 0.019.73, 0
414169, 0.2, 0.0, 0.0, 0.0, 0.0, 0.019.63, 0
0, 0.0, 0.0, 0.0, 0.0, 0.0, 0.00.0, 0
414638, 0.19, 0.0, 0.0, 0.0, 0.0, 0.019.73, 0
414927, 0.25, 0.0, 0.0, 0.0, 0.0, 0.019.73, 0
415142, 0.15, 0.0, 0.0, 0.0, 0.0, 0.019.58, 0
0, 0.0, 0.0, 0.0, 0.0, 0.0, 0.00.0, 0
415607, 0.22, 0.0, 0.0, 0.0, 0.0, 0.019.63, 0
415824, 0.2, 0.0, 0.0, 0.0, 0.0, 0.019.58, 0
0, 0.0, 0.0, 0.0, 0.0, 0.0, 0.00.0, 0
416371, 0.25, 0.0, 0.0, 0.0, 0.0, 0.019.68, 0
416573, 0.25, 0.0, 0.0, 0.0, 0.0, 0.019.58, 0
416699, 0.17, 0.0, 0.0, 0.0, 0.0, 0.019.68, 0
416991, 0.22, 0.0, 0.0, 0.0, 0.0, 0.019.63, 0
0, 0.0, 0.0, 0.0, 0.0, 0.0, 0.00.0, 0
417447, 0.21, 0.0, 0.0, 0.0, 0.0, 0.019.54, 0
417571, 0.2, 0.0, 0.0, 0.0, 0.0, 0.019.54, 0
0, 0.0, 0.0, 0.0, 0.0, 0.0, 0.00.0, 0
418111, 0.25, 0.0, 0.0, 0.0, 0.0, 0.019.54, 0
418329, 0.2, 0.0, 0.0, 0.0, 0.0, 0.019.49, 0
418547, 0.2, 0.0, 0.0, 0.0, 0.0, 0.019.54, 0
418839, 0.25, 0.0, 0.0, 0.0, 0.0, 0.019.54, 0
419056, 0.19, 0.0, 0.0, 0.0, 0.0, 0.019.58, 0
0, 0.0, 0.0, 0.0, 0.0, 0.0, 0.00.0, 0
419409, 0.17, 0.0, 0.0, 0.0, 0.0, 0.019.54, 0
419625, 0.16, 0.0, 0.0, 0.0, 0.0, 0.019.49, 0
419914, 0.15, 0.0, 0.0, 0.0, 0.0, 0.019.54, 0
420131, 0.2, 0.0, 0.0, 0.0, 0.0, 0.019.49, 0
0, 0.0, 0.0, 0.0, 0.0, 0.0, 0.00.0, 0
420597, 0.21, 0.0, 0.0, 0.0, 0.0, 0.019.44, 0
420815, 0.17, 0.0, 0.0, 0.0, 0.0, 0.019.49, 0
0, 0.0, 0.0, 0.0, 0.0, 0.0, 0.00.0, 0
421360, 0.17, 0.0, 0.0, 0.0, 0.0, 0.019.44, 0
421649, 0.19, 0.0, 0.0, 0.0, 0.0, 0.019.44, 0
421866, 0.17, 0.0, 0.0, 0.0, 0.0, 0.019.49, 0
422003, 0.22, 0.0, 0.0, 0.0, 0.0, 0.019.49, 0
422205, 0.22, 0.0, 0.0, 0.0, 0.0, 0.019.49, 0
422331, 0.18, 0.0, 0.0, 0.0, 0.0, 0.019.54, 0
422623, 0.16, 0.0, 0.0, 0.0, 0.0, 0.019.44, 0
0, 0.0, 0.0, 0.0, 0.0, 0.0, 0.00.0, 0
423087, 0.22, 0.0, 0.0, 0.0, 0.0, 0.019.44, 0
423378, 0.22, 0.0, 0.0, 0.0, 0.0, 0.019.44, 0
0, 0.0, 0.0, 0.0, 0.0, 0.0, 0.00.0, 0
423848, 0.2, 0.0, 0.0, 0.0, 0.0, 0.019.4, 0
424140, 0.19, 0.0, 0.0, 0.0, 0.0, 0.019.44, 0
424354, 0.2, 0.0, 0.0, 0.0, 0.0, 0.019.4, 0
424493, 0.19, 0.0, 0.0, 0.0, 0.0, 0.019.49, 0
424694, 0.22, 0.0, 0.0, 0.0, 0.0, 0.019.4, 0
424818, 0.19, 0.0, 0.0, 0.0, 0.0, 0.019.44, 0
425109, 0.2, 0.0, 0.0, 0.0, 0.0, 0.019.44, 0
0, 0.0, 0.0, 0.0, 0.0, 0.0, 0.00.0, 0
425573, 0.18, 0.0, 0.0, 0.0, 0.0, 0.019.3, 0
425793, 0.19, 0.0, 0.0, 0.0, 0.0, 0.019.35, 0
426010, 0.23, 0.0, 0.0, 0.0, 0.0, 0.019.35, 0
426299, 0.21, 0.0, 0.0, 0.0, 0.0, 0.019.35, 0
426442, 0.25, 0.0, 0.0, 0.0, 0.0, 0.019.44, 0
0, 0.0, 0.0, 0.0, 0.0, 0.0, 0.00.0, 0
426982, 0.22, 0.0, 0.0, 0.0, 0.0, 0.019.35, 0
427202, 0.16, 0.0, 0.0, 0.0, 0.0, 0.019.4, 0
0, 0.0, 0.0, 0.0, 0.0, 0.0, 0.00.0, 0
427731, 0.14, 0.0, 0.0, 0.0, 0.0, 0.019.35, 0
427857, 0.18, 0.0, 0.0, 0.0, 0.0, 0.019.3, 0
0, 0.0, 0.0, 0.0, 0.0, 0.0, 0.00.0, 0
428401, 0.22, 0.0, 0.0, 0.0, 0.0, 0.019.4, 0
428694, 0.17, 0.0, 0.0, 0.0, 0.0, 0.019.4, 0
0, 0.0, 0.0, 0.0, 0.0, 0.0, 0.00.0, 0
429162, 0.2, 0.0, 0.0, 0.0, 0.0, 0.019.4, 0
0, 0.0, 0.0, 0.0, 0.0, 0.0, 0.00.0, 0
429689, 0.18, 0.0, 0.0, 0.0, 0.0, 0.019.4, 0
429816, 0.23, 0.0, 0.0, 0.0, 0.0, 0.019.44, 0
430109, 0.18, 0.0, 0.0, 0.0, 0.0, 0.019.44, 0
0, 0.0, 0.0, 0.0, 0.0, 0.0, 0.00.0, 0
430574, 0.2, 0.0, 0.0, 0.0, 0.0, 0.019.4, 0
430863, 0.22, 0.0, 0.0, 0.0, 0.0, 0.019.44, 0
0, 0.0, 0.0, 0.0, 0.0, 0.0, 0.00.0, 0
431337, 0.28, 0.0, 0.0, 0.0, 0.0, 0.019.4, 0
431626, 0.17, 0.0, 0.0, 0.0, 0.0, 0.019.49, 0
431843, 0.24, 0.0, 0.0, 0.0, 0.0, 0.019.35, 0
431980, 0.22, 0.0, 0.0, 0.0, 0.0, 0.019.25, 0
432181, 0.16, 0.0, 0.0, 0.0, 0.0, 0.019.3, 0
432303, 0.18, 0.0, 0.0, 0.0, 0.0, 0.019.35, 0
432598, 0.17, 0.0, 0.0, 0.0, 0.0, 0.019.35, 0
0, 0.0, 0.0, 0.0, 0.0, 0.0, 0.00.0, 0
433051, 0.17, 0.0, 0.0, 0.0, 0.0, 0.019.4, 0
433253, 0.23, 0.0, 0.0, 0.0, 0.0, 0.019.3, 0
0, 0.0, 0.0, 0.0, 0.0, 0.0, 0.00.0, 0
433716, 0.18, 0.0, 0.0, 0.0, 0.0, 0.019.3, 0
434008, 0.18, 0.0, 0.0, 0.0, 0.0, 0.019.25, 0
0, 0.0, 0.0, 0.0, 0.0, 0.0, 0.00.0, 0
434474, 0.19, 0.0, 0.0, 0.0, 0.0, 0.019.35, 0
434694, 0.22, 0.0, 0.0, 0.0, 0.0, 0.019.3, 0
434911, 0.21, 0.0, 0.0, 0.0, 0.0, 0.019.25, 0
435200, 0.17, 0.0, 0.0, 0.0, 0.0, 0.019.25, 0
435344, 0.2, 0.0, 0.0, 0.0, 0.0, 0.019.35, 0
435561, 0.15, 0.0, 0.0, 0.0, 0.0, 0.019.3, 0
435850, 0.19, 0.0, 0.0, 0.0, 0.0, 0.019.16, 0
0, 0.0, 0.0, 0.0, 0.0, 0.0, 0.00.0, 0
436316, 0.2, 0.0, 0.0, 0.0, 0.0, 0.019.3, 0
436534, 0.18, 0.0, 0.0, 0.0, 0.0, 0.019.16, 0
436754, 0.15, 0.0, 0.0, 0.0, 0.0, 0.019.21, 0
436877, 0.16, 0.0, 0.0, 0.0, 0.0, 0.019.21, 0
437093, 0.18, 0.0, 0.0, 0.0, 0.0, 0.019.3, 0
437380, 0.17, 0.0, 0.0, 0.0, 0.0, 0.019.21, 0
437599, 0.24, 0.0, 0.0, 0.0, 0.0, 0.019.16, 0
0, 0.0, 0.0, 0.0, 0.0, 0.0, 0.00.0, 0
438067, 0.21, 0.0, 0.0, 0.0, 0.0, 0.019.11, 0
438354, 0.26, 0.0, 0.0, 0.0, 0.0, 0.019.07, 0
0, 0.0, 0.0, 0.0, 0.0, 0.0, 0.00.0, 0
438824, 0.19, 0.0, 0.0, 0.0, 0.0, 0.019.21, 0
439111, 0.17, 0.0, 0.0, 0.0, 0.0, 0.019.11, 0
439252, 0.2, 0.0, 0.0, 0.0, 0.0, 0.019.11, 0
439450, 0.22, 0.0, 0.0, 0.0, 0.0, 0.019.16, 0
439576, 0.19, 0.0, 0.0, 0.0, 0.0, 0.019.11, 0
439789, 0.17, 0.0, 0.0, 0.0, 0.0, 0.019.16, 0
440006, 0.19, 0.0, 0.0, 0.0, 0.0, 0.019.21, 0
440226, 0.19, 0.0, 0.0, 0.0, 0.0, 0.019.07, 0
440515, 0.25, 0.0, 0.0, 0.0, 0.0, 0.019.07, 0
440732, 0.14, 0.0, 0.0, 0.0, 0.0, 0.019.11, 0
440869, 0.21, 0.0, 0.0, 0.0, 0.0, 0.019.02, 0
441070, 0.19, 0.0, 0.0, 0.0, 0.0, 0.019.07, 0
441193, 0.21, 0.0, 0.0, 0.0, 0.0, 0.019.02, 0
441486, 0.12, 0.0, 0.0, 0.0, 0.0, 0.019.11, 0
0, 0.0, 0.0, 0.0, 0.0, 0.0, 0.00.0, 0
441953, 0.17, 0.0, 0.0, 0.0, 0.0, 0.019.07, 0
442171, 0.14, 0.0, 0.0, 0.0, 0.0, 0.019.02, 0
442387, 0.17, 0.0, 0.0, 0.0, 0.0, 0.018.97, 0
442601, 0.17, 0.0, 0.0, 0.0, 0.0, 0.019.02, 0
442818, 0.22, 0.0, 0.0, 0.0, 0.0, 0.018.97, 0
0, 0.0, 0.0, 0.0, 0.0, 0.0, 0.00.0, 0
443351, 0.17, 0.0, 0.0, 0.0, 0.0, 0.019.07, 0
443478, 0.21, 0.0, 0.0, 0.0, 0.0, 0.019.07, 0
443694, 0.19, 0.0, 0.0, 0.0, 0.0, 0.019.11, 0
443987, 0.25, 0.0, 0.0, 0.0, 0.0, 0.019.07, 0
0, 0.0, 0.0, 0.0, 0.0, 0.0, 0.00.0, 0
444455, 0.23, 0.0, 0.0, 0.0, 0.0, 0.019.16, 0
444744, 0.21, 0.0, 0.0, 0.0, 0.0, 0.019.07, 0
0, 0.0, 0.0, 0.0, 0.0, 0.0, 0.00.0, 0
445211, 0.2, 0.0, 0.0, 0.0, 0.0, 0.019.16, 0
445425, 0.18, 0.0, 0.0, 0.0, 0.0, 0.019.21, 0
445721, 0.23, 0.0, 0.0, 0.0, 0.0, 0.019.21, 0
445858, 0.18, 0.0, 0.0, 0.0, 0.0, 0.019.3, 0
446059, 0.18, 0.0, 0.0, 0.0, 0.0, 0.019.25, 0
446184, 0.23, 0.0, 0.0, 0.0, 0.0, 0.019.4, 0
446477, 0.17, 0.0, 0.0, 0.0, 0.0, 0.019.3, 0
0, 0.0, 0.0, 0.0, 0.0, 0.0, 0.00.0, 0
446945, 0.17, 0.0, 0.0, 0.0, 0.0, 0.019.44, 0
0, 0.0, 0.0, 0.0, 0.0, 0.0, 0.00.0, 0
447474, 0.24, 0.0, 0.0, 0.0, 0.0, 0.019.44, 0
447673, 0.25, 0.0, 0.0, 0.0, 0.0, 0.019.54, 0
447812, 0.23, 0.0, 0.0, 0.0, 0.0, 0.019.54, 0
448009, 0.22, 0.0, 0.0, 0.0, 0.0, 0.019.49, 0
448139, 0.15, 0.0, 0.0, 0.0, 0.0, 0.019.54, 0
448352, 0.21, 0.0, 0.0, 0.0, 0.0, 0.019.58, 0
448645, 0.17, 0.0, 0.0, 0.0, 0.0, 0.019.49, 0
0, 0.0, 0.0, 0.0, 0.0, 0.0, 0.00.0, 0
449115, 0.18, 0.0, 0.0, 0.0, 0.0, 0.019.63, 0
449408, 0.17, 0.0, 0.0, 0.0, 0.0, 0.019.68, 0
449625, 0.22, 0.0, 0.0, 0.0, 0.0, 0.019.63, 0
449762, 0.21, 0.0, 0.0, 0.0, 0.0, 0.019.63, 0
449963, 0.18, 0.0, 0.0, 0.0, 0.0, 0.019.73, 0
450159, 0.19, 0.0, 0.0, 0.0, 0.0, 0.019.73, 0
450378, 0.21, 0.0, 0.0, 0.0, 0.0, 0.019.68, 0
0, 0.0, 0.0, 0.0, 0.0, 0.0, 0.00.0, 0
450843, 0.2, 0.0, 0.0, 0.0, 0.0, 0.019.73, 0
451134, 0.18, 0.0, 0.0, -0.01, -0.01, -0.0119.77, 0
0, 0.0, 0.0, 0.0, 0.0, 0.0, 0.00.0, 0
451604, 0.21, 0.0, 0.0, 0.0, 0.0, 0.019.73, 0
451893, 0.22, 0.0, 0.0, 0.0, 0.0, 0.019.73, 0
452110, 0.2, 0.0, 0.0, 0.0, 0.0, 0.019.73, 0
452248, 0.23, 0.0, 0.0, 0.0, 0.0, 0.019.77, 0
452449, 0.18, 0.0, 0.0, 0.0, 0.0, 0.019.73, 0
452572, 0.23, 0.0, 0.0, 0.0, 0.0, 0.019.82, 0
452868, 0.18, 0.0, 0.0, 0.0, 0.0, 0.019.77, 0
0, 0.0, 0.0, 0.0, 0.0, 0.0, 0.00.0, 0
453322, 0.2, 0.0, 0.0, 0.0, 0.0, 0.019.73, 0
453449, 0.19, 0.0, 0.0, 0.0, 0.0, 0.019.68, 0
453662, 0.21, 0.0, 0.0, 0.0, 0.0, 0.019.63, 0
453879, 0.26, 0.0, 0.0, 0.0, 0.0, 0.019.58, 0
0, 0.0, 0.0, 0.0, 0.0, 0.0, 0.00.0, 0
454425, 0.2, 0.0, 0.0, 0.0, 0.0, 0.019.73, 0
454714, 0.19, 0.0, 0.0, 0.0, 0.0, 0.019.73, 0
0, 0.0, 0.0, 0.0, 0.0, 0.0, 0.00.0, 0
455180, 0.22, 0.0, 0.0, 0.0, 0.0, 0.019.58, 0
455394, 0.25, 0.0, 0.0, 0.0, 0.0, 0.019.63, 0
455688, 0.18, 0.0, 0.0, 0.0, 0.0, 0.019.63, 0
455825, 0.17, 0.0, 0.0, 0.0, 0.0, 0.019.54, 0
456026, 0.21, 0.0, 0.0, 0.0, 0.0, 0.019.54, 0
456156, 0.25, 0.0, 0.0, 0.0, 0.0, 0.019.63, 0
456441, 0.21, 0.0, 0.0, 0.0, 0.0, 0.019.44, 0
0, 0.0, 0.0, 0.0, 0.0, 0.0, 0.00.0, 0
456906, 0.23, 0.0, 0.0, 0.0, 0.0, 0.019.49, 0
457125, 0.22, 0.0, 0.0, 0.0, 0.0, 0.019.49, 0
457343, 0.16, 0.0, 0.0, 0.0, 0.0, 0.019.4, 0
457632, 0.24, 0.0, 0.0, 0.0, 0.0, 0.019.44, 0
457849, 0.2, 0.0, 0.0, 0.0, 0.0, 0.019.4, 0
0, 0.0, 0.0, 0.0, 0.0, 0.0, 0.00.0, 0
458314, 0.22, 0.0, 0.0, 0.0, 0.0, 0.019.44, 0
458607, 0.19, 0.0, 0.0, 0.0, 0.0, 0.019.35, 0
0, 0.0, 0.0, 0.0, 0.0, 0.0, 0.00.0, 0
459146, 0.17, 0.0, 0.0, 0.0, 0.0, 0.019.35, 0
459285, 0.2, 0.0, 0.0, 0.0, 0.0, 0.019.35, 0
459390, 0.25, 0.0, 0.0, 0.0, 0.0, 0.019.4, 0
459677, 0.22, 0.0, 0.0, 0.0, 0.0, 0.019.3, 0
0, 0.0, 0.0, 0.0, 0.0, 0.0, 0.00.0, 0
460135, 0.19, 0.0, 0.0, 0.0, 0.0, 0.019.35, 0
460262, 0.17, 0.0, 0.0, 0.0, 0.0, 0.019.4, 0
460551, 0.17, 0.0, 0.0, 0.0, 0.0, 0.019.44, 0
0, 0.0, 0.0, 0.0, 0.0, 0.0, 0.00.0, 0
461019, 0.21, 0.0, 0.0, 0.0, 0.0, 0.019.3, 0
461311, 0.2, 0.0, 0.0, 0.0, 0.0, 0.019.3, 0
461452, 0.18, 0.0, 0.0, 0.0, 0.0, 0.019.3, 0
461673, 0.17, 0.0, 0.0, 0.0, 0.0, 0.019.35, 0
461886, 0.2, 0.0, 0.0, 0.0, 0.0, 0.019.3, 0
0, 0.0, 0.0, 0.0, 0.0, 0.0, 0.00.0, 0
462432, 0.17, 0.0, 0.0, 0.0, 0.0, 0.019.35, 0
462721, 0.18, 0.0, 0.0, 0.0, 0.0, 0.019.35, 0
462938, 0.22, 0.0, 0.0, 0.0, 0.0, 0.019.3, 0
0, 0.0, 0.0, 0.0, 0.0, 0.0, 0.00.0, 0
463406, 0.17, 0.0, 0.0, 0.0, 0.0, 0.019.25, 0
463699, 0.18, 0.0, 0.0, 0.0, 0.0, 0.019.3, 0
0, 0.0, 0.0, 0.0, 0.0, 0.0, 0.00.0, 0
464168, 0.18, 0.0, 0.0, 0.0, 0.0, 0.019.25, 0
464382, 0.25, 0.0, 0.0, 0.0, 0.0, 0.019.21, 0
0, 0.0, 0.0, 0.0, 0.0, 0.0, 0.00.0, 0
464924, 0.16, 0.0, 0.0, 0.0, 0.0, 0.019.25, 0
465141, 0.18, 0.0, 0.0, 0.0, 0.0, 0.019.25, 0
465433, 0.18, 0.0, 0.0, 0.0, 0.0, 0.019.21, 0
0, 0.0, 0.0, 0.0, 0.0, 0.0, 0.00.0, 0
465897, 0.23, 0.0, 0.0, 0.0, 0.0, 0.019.16, 0
466114, 0.14, 0.0, 0.0, 0.0, 0.0, 0.019.21, 0
466334, 0.15, 0.0, 0.0, 0.0, 0.0, 0.019.21, 0
466623, 0.23, 0.0, 0.0, 0.0, 0.0, 0.019.21, 0
466840, 0.18, 0.0, 0.0, 0.0, 0.0, 0.019.16, 0
0, 0.0, 0.0, 0.0, 0.0, 0.0, 0.00.0, 0
467294, 0.18, 0.0, 0.0, 0.0, 0.0, 0.019.21, 0
467421, 0.22, 0.0, 0.0, 0.0, 0.0, 0.019.25, 0
467635, 0.22, 0.0, 0.0, 0.0, 0.0, 0.019.16, 0
467926, 0.19, 0.0, 0.0, 0.0, 0.0, 0.019.21, 0
0, 0.0, 0.0, 0.0, 0.0, 0.0, 0.00.0, 0
468606, 0.25, 0.0, 0.0, 0.0, 0.0, 0.019.3, 0
468826, 0.18, 0.0, 0.0, 0.0, 0.0, 0.019.21, 0
469114, 0.16, 0.0, 0.0, 0.0, 0.0, 0.019.25, 0
469261, 0.24, 0.0, 0.0, 0.0, 0.0, 0.019.25, 0
469475, 0.19, 0.0, 0.0, 0.0, 0.0, 0.019.16, 0
469680, 0.2, 0.0, 0.0, -0.01, -0.01, -0.0119.25, 0
469803, 0.2, 0.0, 0.0, 0.0, 0.0, 0.019.4, 0
470005, 0.17, 0.0, 0.0, 0.0, 0.0, 0.019.3, 0
470206, 0.17, 0.0, 0.0, 0.0, 0.0, 0.019.35, 0
470423, 0.16, 0.0, 0.0, 0.0, 0.0, 0.019.21, 0
0, 0.0, 0.0, 0.0, 0.0, 0.0, 0.00.0, 0
470887, 0.14, 0.0, 0.0, 0.0, 0.0, 0.019.25, 0
471103, 0.21, 0.0, 0.0, 0.0, 0.0, 0.019.3, 0
471322, 0.2, 0.0, 0.0, 0.0, 0.0, 0.019.3, 0
471611, 0.19, 0.0, 0.0, 0.0, 0.0, 0.019.3, 0
471828, 0.24, 0.0, 0.0, 0.0, 0.0, 0.019.44, 0
471965, 0.2, 0.0, 0.0, 0.0, 0.0, 0.019.35, 0
472165, 0.27, 0.0, 0.0, 0.0, 0.0, 0.019.35, 0
472291, 0.2, 0.0, 0.0, 0.0, 0.0, 0.019.4, 0
472584, 0.19, 0.0, 0.0, 0.0, 0.0, 0.019.4, 0
0, 0.0, 0.0, 0.0, 0.0, 0.0, 0.00.0, 0
473052, 0.25, 0.0, 0.0, 0.0, 0.0, 0.019.3, 0
473268, 0.2, 0.0, 0.0, 0.0, 0.0, 0.019.25, 0
0, 0.0, 0.0, 0.0, 0.0, 0.0, 0.00.0, 0
473810, 0.21, 0.0, 0.0, 0.0, 0.0, 0.019.25, 0
474023, 0.22, 0.0, 0.0, 0.0, 0.0, 0.019.25, 0
474317, 0.18, 0.0, 0.0, 0.0, 0.0, 0.019.25, 0
474454, 0.18, 0.0, 0.0, 0.0, 0.0, 0.019.3, 0
474655, 0.16, 0.0, 0.0, 0.0, 0.0, 0.019.35, 0
474778, 0.18, 0.0, 0.0, 0.0, 0.0, 0.019.3, 0
475072, 0.17, 0.0, 0.0, 0.0, 0.0, 0.019.3, 0
0, 0.0, 0.0, 0.0, 0.0, 0.0, 0.00.0, 0
475540, 0.21, 0.0, 0.0, 0.0, 0.0, 0.019.3, 0
475753, 0.16, 0.0, 0.0, 0.0, 0.0, 0.019.25, 0
475973, 0.21, 0.0, 0.0, 0.0, 0.0, 0.019.35, 0
0, 0.0, 0.0, 0.0, 0.0, 0.0, 0.00.0, 0
476509, 0.16, 0.0, 0.0, 0.0, 0.0, 0.019.3, 0
476801, 0.22, 0.0, 0.0, 0.0, 0.0, 0.019.21, 0
0, 0.0, 0.0, 0.0, 0.0, 0.0, 0.00.0, 0
477265, 0.2, 0.0, 0.0, 0.0, 0.0, 0.019.25, 0
477558, 0.21, 0.0, 0.0, 0.0, 0.0, 0.019.21, 0
477689, 0.18, 0.0, 0.0, 0.0, 0.0, 0.019.11, 0
477977, 0.28, 0.0, 0.0, 0.0, 0.0, 0.019.11, 0
0, 0.0, 0.0, 0.0, 0.0, 0.0, 0.00.0, 0
478435, 0.21, 0.0, 0.0, 0.0, 0.0, 0.019.16, 0
478558, 0.21, 0.0, 0.0, 0.0, 0.0, 0.019.11, 0
478775, 0.2, 0.0, 0.0, 0.0, 0.0, 0.019.16, 0
479064, 0.18, 0.0, 0.0, 0.0, 0.0, 0.019.25, 0
0, 0.0, 0.0, 0.0, 0.0, 0.0, 0.00.0, 0
479518, 0.2, 0.0, 0.0, 0.0, 0.0, 0.019.16, 0
479641, 0.21, 0.0, 0.0, 0.0, 0.0, 0.019.07, 0
0, 0.0, 0.0, 0.0, 0.0, 0.0, 0.00.0, 0
480183, 0.19, 0.0, 0.0, 0.0, 0.0, 0.019.11, 0
480473, 0.25, 0.0, 0.0, 0.0, 0.0, 0.019.21, 0
0, 0.0, 0.0, 0.0, 0.0, 0.0, 0.00.0, 0
480941, 0.22, 0.0, 0.0, 0.0, 0.0, 0.019.07, 0
481154, 0.22, 0.0, 0.0, 0.0, 0.0, 0.019.16, 0
481375, 0.2, 0.0, 0.0, 0.0, 0.0, 0.019.11, 0
0, 0.0, 0.0, 0.0, 0.0, 0.0, 0.00.0, 0
481915, 0.26, 0.0, 0.0, 0.0, 0.0, 0.019.21, 0
482135, 0.2, 0.0, 0.0, 0.0, 0.0, 0.019.07, 0
482355, 0.24, 0.0, 0.0, 0.0, 0.0, 0.019.07, 0
482647, 0.18, 0.0, 0.0, 0.0, 0.0, 0.019.16, 0
0, 0.0, 0.0, 0.0, 0.0, 0.0, 0.00.0, 0
483107, 0.2, 0.0, 0.0, 0.0, 0.0, 0.019.25, 0
483232, 0.26, 0.0, 0.0, 0.0, 0.0, 0.019.16, 0
483448, 0.25, 0.0, 0.0, 0.0, 0.0, 0.019.21, 0
483661, 0.23, 0.0, 0.0, 0.0, 0.0, 0.019.16, 0
0, 0.0, 0.0, 0.0, 0.0, 0.0, 0.00.0, 0
484205, 0.21, 0.0, 0.0, 0.0, 0.0, 0.019.16, 0
484495, 0.24, 0.0, 0.0, 0.0, 0.0, 0.019.21, 0
484712, 0.21, 0.0, 0.0, 0.0, 0.0, 0.019.16, 0
0, 0.0, 0.0, 0.0, 0.0, 0.0, 0.00.0, 0
485177, 0.22, 0.0, 0.0, 0.0, 0.0, 0.019.21, 0
485394, 0.22, 0.0, 0.0, 0.0, 0.0, 0.019.07, 0
0, 0.0, 0.0, 0.0, 0.0, 0.0, 0.00.0, 0
485939, 0.23, 0.0, 0.0, 0.0, 0.0, 0.019.16, 0
486156, 0.21, 0.0, 0.0, 0.0, 0.0, 0.019.07, 0
486449, 0.2, 0.0, 0.0, 0.0, 0.0, 0.019.16, 0
0, 0.0, 0.0, 0.0, 0.0, 0.0, 0.00.0, 0
486991, 0.18, 0.0, 0.0, 0.0, 0.0, 0.019.21, 0
487208, 0.24, 0.0, 0.0, 0.0, 0.0, 0.019.07, 0
0, 0.0, 0.0, 0.0, 0.0, 0.0, 0.00.0, 0
487672, 0.24, 0.0, 0.0, 0.0, 0.0, 0.019.21, 0
487964, 0.2, 0.0, 0.0, 0.0, 0.0, 0.019.11, 0
0, 0.0, 0.0, 0.0, 0.0, 0.0, 0.00.0, 0
488435, 0.22, 0.0, 0.0, 0.0, 0.0, 0.019.21, 0
488651, 0.22, 0.0, 0.0, 0.0, 0.0, 0.019.16, 0
488944, 0.17, 0.0, 0.0, -0.01, -0.01, -0.0119.16, 0
489081, 0.23, 0.0, 0.0, 0.0, 0.0, 0.019.16, 0
489278, 0.19, 0.0, 0.0, 0.0, 0.0, 0.019.16, 0
489477, 0.23, 0.0, 0.0, -0.01, -0.01, -0.0119.16, 0
489694, 0.17, 0.0, 0.0, 0.0, 0.0, 0.019.07, 0
0, 0.0, 0.0, 0.0, 0.0, 0.0, 0.00.0, 0
490161, 0.18, 0.0, 0.0, 0.0, 0.0, 0.019.16, 0
490379, 0.15, 0.0, 0.0, -0.01, -0.01, -0.0119.25, 0
0, 0.0, 0.0, 0.0, 0.0, 0.0, 0.00.0, 0
490920, 0.21, 0.0, 0.0, 0.0, 0.0, 0.019.25, 0
491136, 0.2, 0.0, 0.0, 0.0, 0.0, 0.019.21, 0
491429, 0.22, 0.0, 0.0, 0.0, 0.0, 0.019.16, 0
491566, 0.26, 0.0, 0.0, -0.01, -0.01, -0.0119.16, 0
491767, 0.14, 0.0, 0.0, 0.0, 0.0, 0.019.11, 0
491890, 0.22, 0.0, 0.0, 0.0, 0.0, 0.019.21, 0
492109, 0.21, 0.0, 0.0, 0.0, 0.0, 0.019.11, 0
492329, 0.2, 0.0, 0.0, 0.0, 0.0, 0.019.16, 0
492542, 0.21, 0.0, 0.0, 0.0, 0.0, 0.019.16, 0
0, 0.0, 0.0, 0.0, 0.0, 0.0, 0.00.0, 0
493088, 0.19, 0.0, 0.0, 0.0, 0.0, 0.019.11, 0
493302, 0.23, 0.0, 0.0, 0.0, 0.0, 0.019.16, 0
493594, 0.24, 0.0, 0.0, 0.0, 0.0, 0.019.16, 0
0, 0.0, 0.0, 0.0, 0.0, 0.0, 0.00.0, 0
494133, 0.18, 0.0, 0.0, 0.0, 0.0, 0.019.02, 0
494273, 0.21, 0.0, 0.0, 0.0, 0.0, 0.019.11, 0
0, 0.0, 0.0, 0.0, 0.0, 0.0, 0.00.0, 0
494817, 0.2, 0.0, 0.0, 0.0, 0.0, 0.019.21, 0
495105, 0.17, 0.0, 0.0, 0.0, 0.0, 0.019.11, 0
495249, 0.22, 0.0, 0.0, 0.0, 0.0, 0.019.11, 0
495462, 0.23, 0.0, 0.0, 0.0, 0.0, 0.019.11, 0
495758, 0.18, 0.0, 0.0, 0.0, 0.0, 0.019.16, 0
0, 0.0, 0.0, 0.0, 0.0, 0.0, 0.00.0, 0
496215, 0.24, 0.0, 0.0, 0.0, 0.0, 0.019.16, 0
496342, 0.17, 0.0, 0.0, 0.0, 0.0, 0.019.21, 0
496557, 0.26, 0.0, 0.0, 0.0, 0.0, 0.019.25, 0
496849, 0.19, 0.0, 0.0, 0.0, 0.0, 0.019.16, 0
0, 0.0, 0.0, 0.0, 0.0, 0.0, 0.00.0, 0
497317, 0.18, 0.0, 0.0, 0.0, 0.0, 0.019.25, 0
497536, 0.23, 0.0, 0.0, 0.0, 0.0, 0.019.16, 0
497753, 0.18, 0.0, 0.0, 0.0, 0.0, 0.019.25, 0
497966, 0.24, 0.0, 0.0, 0.0, 0.0, 0.019.21, 0
498183, 0.22, 0.0, 0.0, 0.0, 0.0, 0.019.25, 0
498400, 0.23, 0.0, 0.0, 0.0, 0.0, 0.019.21, 0
498689, 0.22, 0.0, 0.0, -0.01, -0.01, -0.0119.21, 0
498906, 0.19, 0.0, 0.0, 0.0, 0.0, 0.019.25, 0
499043, 0.19, 0.0, 0.0, 0.0, 0.0, 0.019.25, 0
499249, 0.21, 0.0, 0.0, 0.0, 0.0, 0.019.25, 0
499372, 0.23, 0.0, 0.0, 0.0, 0.0, 0.019.3, 0
499663, 0.27, 0.0, 0.0, 0.0, 0.0, 0.019.16, 0
0, 0.0, 0.0, 0.0, 0.0, 0.0, 0.00.0, 0
500131, 0.18, 0.0, 0.0, 0.0, 0.0, 0.019.3, 0
500420, 0.2, 0.0, 0.0, 0.0, 0.0, 0.019.3, 0
0, 0.0, 0.0, 0.0, 0.0, 0.0, 0.00.0, 0
500888, 0.18, 0.0, 0.0, 0.0, 0.0, 0.019.25, 0
501104, 0.17, 0.0, 0.0, 0.0, 0.0, 0.019.21, 0
501399, 0.14, 0.0, 0.0, 0.0, 0.0, 0.019.25, 0
501537, 0.22, 0.0, 0.0, 0.0, 0.0, 0.019.25, 0
501737, 0.21, 0.0, 0.0, 0.0, 0.0, 0.019.35, 0
501860, 0.19, 0.0, 0.0, 0.0, 0.0, 0.019.21, 0
502148, 0.2, 0.0, 0.0, 0.0, 0.0, 0.019.3, 0
0, 0.0, 0.0, 0.0, 0.0, 0.0, 0.00.0, 0
502617, 0.24, 0.0, 0.0, 0.0, 0.0, 0.019.3, 0
502909, 0.26, 0.0, 0.0, 0.0, 0.0, 0.019.3, 0
0, 0.0, 0.0, 0.0, 0.0, 0.0, 0.00.0, 0
503377, 0.15, 0.0, 0.0, 0.0, 0.0, 0.019.3, 0
503666, 0.17, 0.0, 0.0, 0.0, 0.0, 0.019.3, 0
503883, 0.23, 0.0, 0.0, 0.0, 0.0, 0.019.25, 0
504020, 0.2, 0.0, 0.0, 0.0, 0.0, 0.019.25, 0
504221, 0.16, 0.0, 0.0, 0.0, 0.0, 0.019.25, 0
504344, 0.21, 0.0, 0.0, 0.0, 0.0, 0.019.3, 0
504564, 0.2, 0.0, 0.0, 0.0, 0.0, 0.019.35, 0
504780, 0.19, 0.0, 0.0, 0.0, 0.0, 0.019.21, 0
505069, 0.18, 0.0, 0.0, 0.0, 0.0, 0.019.3, 0
505216, 0.22, 0.0, 0.0, 0.0, 0.0, 0.019.21, 0
505339, 0.2, 0.0, 0.0, 0.0, 0.0, 0.019.35, 0
505556, 0.23, 0.0, 0.0, 0.0, 0.0, 0.019.21, 0
505845, 0.2, 0.0, 0.0, 0.0, 0.0, 0.019.21, 0
506062, 0.23, 0.0, 0.0, 0.0, 0.0, 0.019.35, 0
506207, 0.17, 0.0, 0.0, 0.0, 0.0, 0.019.16, 0
506499, 0.2, 0.0, 0.0, 0.0, 0.0, 0.019.35, 0
0, 0.0, 0.0, 0.0, 0.0, 0.0, 0.00.0, 0
506967, 0.17, 0.0, 0.0, 0.0, 0.0, 0.019.25, 0
507181, 0.21, 0.0, 0.0, 0.0, 0.0, 0.019.21, 0
507474, 0.18, 0.0, 0.0, 0.0, 0.0, 0.019.3, 0
0, 0.0, 0.0, 0.0, 0.0, 0.0, 0.00.0, 0
507936, 0.24, 0.0, 0.0, 0.0, 0.0, 0.019.25, 0
0, 0.0, 0.0, 0.0, 0.0, 0.0, 0.00.0, 0
508466, 0.23, 0.0, 0.0, 0.0, 0.0, 0.019.3, 0
508665, 0.22, 0.0, 0.0, 0.0, 0.0, 0.019.21, 0
508807, 0.15, 0.0, 0.0, 0.0, 0.0, 0.019.3, 0
509004, 0.17, 0.0, 0.0, 0.0, 0.0, 0.019.21, 0
509197, 0.21, 0.0, 0.0, 0.0, 0.0, 0.019.21, 0
0, 0.0, 0.0, 0.0, 0.0, 0.0, 0.00.0, 0
509653, 0.19, 0.0, 0.0, 0.0, 0.0, 0.019.16, 0
509780, 0.19, 0.0, 0.0, 0.0, 0.0, 0.019.21, 0
510072, 0.2, 0.0, 0.0, 0.0, 0.0, 0.019.21, 0
0, 0.0, 0.0, 0.0, 0.0, 0.0, 0.00.0, 0
510539, 0.21, 0.0, 0.0, 0.0, 0.0, 0.019.11, 0
510828, 0.21, 0.0, 0.0, 0.0, 0.0, 0.019.21, 0
511044, 0.22, 0.0, 0.0, 0.0, 0.0, 0.019.25, 0
0, 0.0, 0.0, 0.0, 0.0, 0.0, 0.00.0, 0
511584, 0.19, 0.0, 0.0, 0.0, 0.0, 0.019.21, 0
511728, 0.22, 0.0, 0.0, 0.0, 0.0, 0.019.11, 0
511946, 0.18, 0.0, 0.0, 0.0, 0.0, 0.019.16, 0
512159, 0.18, 0.0, 0.0, 0.0, 0.0, 0.019.11, 0
512452, 0.24, 0.0, 0.0, 0.0, 0.0, 0.019.16, 0
512589, 0.19, 0.0, 0.0, 0.0, 0.0, 0.019.25, 0
512790, 0.23, 0.0, 0.0, 0.0, 0.0, 0.019.21, 0
512913, 0.22, 0.0, 0.0, 0.0, 0.0, 0.019.16, 0
513132, 0.22, 0.0, 0.0, 0.0, 0.0, 0.019.11, 0
513347, 0.21, 0.0, 0.0, 0.0, 0.0, 0.019.25, 0
513563, 0.22, 0.0, 0.0, 0.0, 0.0, 0.019.11, 0
0, 0.0, 0.0, 0.0, 0.0, 0.0, 0.00.0, 0
514107, 0.23, 0.0, 0.0, 0.0, 0.0, 0.019.21, 0
514399, 0.24, 0.0, 0.0, 0.0, 0.0, 0.019.25, 0
514616, 0.13, 0.0, 0.0, 0.0, 0.0, 0.019.21, 0
0, 0.0, 0.0, 0.0, 0.0, 0.0, 0.00.0, 0
515080, 0.19, 0.0, 0.0, 0.0, 0.0, 0.019.21, 0
515300, 0.22, 0.0, 0.0, 0.0, 0.0, 0.019.25, 0
515517, 0.18, 0.0, 0.0, 0.0, 0.0, 0.019.21, 0
515806, 0.17, 0.0, 0.0, 0.0, 0.0, 0.019.3, 0
515947, 0.16, 0.0, 0.0, 0.0, 0.0, 0.019.3, 0
0, 0.0, 0.0, 0.0, 0.0, 0.0, 0.00.0, 0
516486, 0.19, 0.0, 0.0, 0.0, 0.0, 0.019.21, 0
516778, 0.21, 0.0, 0.0, 0.0, 0.0, 0.019.25, 0
0, 0.0, 0.0, 0.0, 0.0, 0.0, 0.00.0, 0
517231, 0.15, 0.0, 0.0, 0.0, 0.0, 0.019.49, 0
517358, 0.16, 0.0, 0.0, 0.0, 0.0, 0.019.44, 0
517571, 0.21, 0.0, 0.0, 0.0, 0.0, 0.019.35, 0
517772, 0.21, 0.0, 0.0, 0.0, 0.0, 0.019.49, 0
517895, 0.22, 0.0, 0.0, 0.0, 0.0, 0.019.44, 0
518113, 0.18, 0.0, 0.0, 0.0, 0.0, 0.019.44, 0
518331, 0.18, 0.0, 0.0, 0.0, 0.0, 0.019.44, 0
518620, 0.17, 0.0, 0.0, 0.0, 0.0, 0.019.54, 0
518761, 0.22, 0.0, 0.0, 0.0, 0.0, 0.019.54, 0
518977, 0.15, 0.0, 0.0, 0.0, 0.0, 0.019.68, 0
519194, 0.18, 0.0, 0.0, 0.0, 0.0, 0.019.63, 0
519411, 0.21, 0.0, 0.0, 0.0, 0.0, 0.019.68, 0
519700, 0.23, 0.0, 0.0, 0.0, 0.0, 0.019.63, 0
519917, 0.23, 0.0, 0.0, 0.0, 0.0, 0.019.68, 0
520054, 0.23, 0.0, 0.0, 0.0, 0.0, 0.019.73, 0
520253, 0.16, 0.0, 0.0, 0.0, 0.0, 0.019.68, 0
520376, 0.21, 0.0, 0.0, 0.0, 0.0, 0.019.73, 0
520597, 0.22, 0.0, 0.0, 0.0, 0.0, 0.019.77, 0
520814, 0.19, 0.0, 0.0, 0.0, 0.0, 0.019.73, 0
521104, 0.21, 0.0, 0.0, 0.0, 0.0, 0.019.77, 0
521323, 0.19, 0.0, 0.0, 0.0, 0.0, 0.019.77, 0
521460, 0.21, 0.0, 0.0, 0.0, 0.0, 0.019.77, 0
521661, 0.23, 0.0, 0.0, 0.0, 0.0, 0.019.77, 0
521785, 0.19, 0.0, 0.0, 0.0, 0.0, 0.019.96, 0
522076, 0.18, 0.0, 0.0, 0.0, 0.0, 0.019.87, 0
522221, 0.17, 0.0, 0.0, 0.0, 0.0, 0.019.82, 0
522437, 0.2, 0.0, 0.0, 0.0, 0.0, 0.019.82, 0
522660, 0.19, 0.0, 0.0, 0.0, 0.0, 0.019.91, 0
522875, 0.18, 0.0, 0.0, 0.0, 0.0, 0.019.77, 0
523092, 0.23, 0.0, 0.0, 0.0, 0.0, 0.019.87, 0
523311, 0.19, 0.0, 0.0, 0.0, 0.0, 0.019.82, 0
523600, 0.21, 0.0, 0.0, 0.0, 0.0, 0.019.82, 0
523817, 0.17, 0.0, 0.0, 0.0, 0.0, 0.019.87, 0
523954, 0.17, 0.0, 0.0, 0.0, 0.0, 0.019.87, 0
524156, 0.22, 0.0, 0.0, 0.0, 0.0, 0.019.87, 0
524279, 0.19, 0.0, 0.0, 0.0, 0.0, 0.019.91, 0
524572, 0.2, 0.0, 0.0, 0.0, 0.0, 0.019.91, 0
0, 0.0, 0.0, 0.0, 0.0, 0.0, 0.00.0, 0
525035, 0.2, 0.0, 0.0, 0.0, 0.0, 0.019.91, 0
525330, 0.21, 0.0, 0.0, 0.0, 0.0, 0.019.91, 0
0, 0.0, 0.0, 0.0, 0.0, 0.0, 0.00.0, 0
525798, 0.2, 0.0, 0.0, 0.0, 0.0, 0.019.87, 0
526016, 0.19, 0.0, 0.0, 0.0, 0.0, 0.019.91, 0
526311, 0.19, 0.0, 0.0, 0.0, 0.0, 0.019.77, 0
526448, 0.17, 0.0, 0.0, 0.0, 0.0, 0.019.87, 0
526649, 0.19, 0.0, 0.0, 0.0, 0.0, 0.019.96, 0
526772, 0.18, 0.0, 0.0, 0.0, 0.0, 0.019.82, 0
527065, 0.22, 0.0, 0.0, 0.0, 0.0, 0.019.82, 0
0, 0.0, 0.0, 0.0, 0.0, 0.0, 0.00.0, 0
527530, 0.2, 0.0, 0.0, 0.0, 0.0, 0.019.77, 0
527750, 0.17, 0.0, 0.0, 0.0, 0.0, 0.019.91, 0
528036, 0.2, 0.0, 0.0, 0.0, 0.0, 0.019.87, 0
0, 0.0, 0.0, 0.0, 0.0, 0.0, 0.00.0, 0
528488, 0.14, 0.0, 0.0, 0.0, 0.0, 0.019.91, 0
528687, 0.23, 0.0, 0.0, 0.0, 0.0, 0.019.82, 0
528828, 0.22, 0.0, 0.0, 0.0, 0.0, 0.019.91, 0
529027, 0.17, 0.0, 0.0, 0.0, 0.0, 0.019.91, 0
529153, 0.2, 0.0, 0.0, 0.0, 0.0, 0.019.77, 0
529366, 0.2, 0.0, 0.0, 0.0, 0.0, 0.019.91, 0
529586, 0.17, 0.0, 0.0, 0.0, 0.0, 0.019.87, 0
529807, 0.2, 0.0, 0.0, 0.0, 0.0, 0.019.91, 0
530095, 0.18, 0.0, 0.0, 0.0, 0.0, 0.019.82, 0
0, 0.0, 0.0, 0.0, 0.0, 0.0, 0.00.0, 0
530563, 0.18, 0.0, 0.0, 0.0, 0.0, 0.019.82, 0
530852, 0.19, 0.0, 0.0, 0.0, 0.0, 0.019.82, 0
531068, 0.23, 0.0, 0.0, 0.0, 0.0, 0.019.91, 0
0, 0.0, 0.0, 0.0, 0.0, 0.0, 0.00.0, 0
531535, 0.24, 0.0, 0.0, 0.0, 0.0, 0.019.82, 0
531828, 0.24, 0.0, 0.0, 0.0, 0.0, 0.019.82, 0
0, 0.0, 0.0, 0.0, 0.0, 0.0, 0.00.0, 0
532297, 0.21, 0.0, 0.0, 0.0, 0.0, 0.019.91, 0
532587, 0.22, 0.0, 0.0, 0.0, 0.0, 0.019.91, 0
532804, 0.2, 0.0, 0.0, 0.0, 0.0, 0.019.87, 0
532941, 0.21, 0.0, 0.0, 0.0, 0.0, 0.019.77, 0
533136, 0.18, 0.0, 0.0, 0.0, 0.0, 0.019.77, 0
533337, 0.22, 0.0, 0.0, 0.0, 0.0, 0.019.73, 0
533476, 0.24, 0.0, 0.0, 0.0, 0.0, 0.019.87, 0
533673, 0.25, 0.0, 0.0, 0.0, 0.0, 0.019.73, 0
533799, 0.2, 0.0, 0.0, 0.0, 0.0, 0.019.87, 0
534089, 0.18, 0.0, 0.0, 0.0, 0.0, 0.019.96, 0
534307, 0.19, 0.0, 0.0, 0.0, 0.0, 0.019.73, 0
0, 0.0, 0.0, 0.0, 0.0, 0.0, 0.00.0, 0
534771, 0.19, 0.0, 0.0, 0.0, 0.0, 0.019.77, 0
535067, 0.16, 0.0, 0.0, 0.0, 0.0, 0.019.73, 0
0, 0.0, 0.0, 0.0, 0.0, 0.0, 0.00.0, 0
535536, 0.16, 0.0, 0.0, 0.0, 0.0, 0.019.77, 0
535749, 0.16, 0.0, 0.0, 0.0, 0.0, 0.019.82, 0
535972, 0.22, 0.0, 0.0, 0.0, 0.0, 0.019.77, 0
536186, 0.17, 0.0, 0.0, 0.0, 0.0, 0.019.82, 0
536403, 0.21, 0.0, 0.0, 0.0, 0.0, 0.019.68, 0
0, 0.0, 0.0, 0.0, 0.0, 0.0, 0.00.0, 0
536948, 0.11, 0.0, 0.0, 0.0, 0.0, 0.019.63, 0
537163, 0.15, 0.0, 0.0, 0.0, 0.0, 0.019.77, 0
537456, 0.16, 0.0, 0.0, 0.0, 0.0, 0.019.68, 0
537593, 0.2, 0.0, 0.0, 0.0, 0.0, 0.019.68, 0
537794, 0.21, 0.0, 0.0, 0.0, 0.0, 0.019.68, 0
537917, 0.18, 0.0, 0.0, 0.0, 0.0, 0.019.63, 0
538135, 0.23, 0.0, 0.0, 0.0, 0.0, 0.019.77, 0
0, 0.0, 0.0, 0.0, 0.0, 0.0, 0.00.0, 0
538677, 0.19, 0.0, 0.0, 0.0, 0.0, 0.019.58, 0
538970, 0.16, 0.0, 0.0, 0.0, 0.0, 0.019.63, 0
0, 0.0, 0.0, 0.0, 0.0, 0.0, 0.00.0, 0
539437, 0.22, 0.0, 0.0, 0.0, 0.0, 0.019.54, 0
539727, 0.19, 0.0, 0.0, 0.0, 0.0, 0.019.54, 0
539944, 0.22, 0.0, 0.0, 0.0, 0.0, 0.019.58, 0
540081, 0.2, 0.0, 0.0, 0.0, 0.0, 0.019.58, 0
540285, 0.2, 0.0, 0.0, 0.0, 0.0, 0.019.58, 0
540408, 0.17, 0.0, 0.0, 0.0, 0.0, 0.019.54, 0
540700, 0.0, 0.0, 0.0, 0.05, 0.05, 0.0519.63, 0
0, 0.0, 0.0, 0.0, 0.0, 0.0, 0.00.0, 0
541167, -1.99, -0.02, -0.02, 0.02, 0.02, 0.0219.54, 0
541460, -0.43, -0.0, -0.0, 0.05, 0.05, 0.0519.44, 0
0, 0.0, 0.0, 0.0, 0.0, 0.0, 0.00.0, 0
541926, -1.15, -0.01, -0.01, -0.04, -0.04, -0.0419.49, 0
542144, -0.36, -0.0, -0.0, 0.03, 0.03, 0.0319.63, 0
542436, -1.01, -0.01, -0.01, 0.02, 0.02, 0.0219.44, 0
542573, -0.49, -0.0, -0.0, -0.02, -0.02, -0.0219.44, 0
542775, -0.56, -0.01, -0.01, -0.01, -0.01, -0.0119.49, 0
542898, -0.54, -0.01, -0.01, -0.02, -0.02, -0.0219.54, 0
543117, -0.5, -0.01, -0.01, 0.01, 0.01, 0.0119.58, 0
543334, -0.47, -0.0, -0.0, -0.02, -0.02, -0.0219.54, 0
543623, -0.53, -0.01, -0.01, 0.0, 0.0, 0.019.54, 0
0, 0.0, 0.0, 0.0, 0.0, 0.0, 0.00.0, 0
544079, -0.46, -0.0, -0.0, 0.0, 0.0, 0.019.58, 0
544206, -0.42, -0.0, -0.0, 0.0, 0.0, 0.019.54, 0
544424, -0.41, -0.0, -0.0, 0.0, 0.0, 0.019.58, 0
544713, -0.44, -0.0, -0.0, 0.0, 0.0, 0.019.68, 0
544928, -0.46, -0.0, -0.0, 0.0, 0.0, 0.019.63, 0
545065, -0.41, -0.0, -0.0, 0.0, 0.0, 0.019.63, 0
545268, -0.44, -0.0, -0.0, 0.0, 0.0, 0.019.68, 0
545391, -0.43, -0.0, -0.0, 0.0, 0.0, 0.019.63, 0
545611, -0.47, -0.0, -0.0, 0.0, 0.0, 0.019.68, 0
545828, -0.47, -0.0, -0.0, 0.0, 0.0, 0.019.82, 0
546117, -0.47, -0.0, -0.0, 0.0, 0.0, 0.019.82, 0
546336, -0.41, -0.0, -0.0, 0.0, 0.0, 0.019.77, 0
0, 0.0, 0.0, 0.0, 0.0, 0.0, 0.00.0, 0
546800, -0.43, -0.0, -0.0, 0.0, 0.0, 0.019.82, 0
547093, -0.39, -0.0, -0.0, 0.0, 0.0, 0.019.77, 0
547236, -0.4, -0.0, -0.0, 0.0, 0.0, 0.019.82, 0
547452, -0.38, -0.0, -0.0, 0.0, 0.0, 0.019.87, 0
547743, -0.41, -0.0, -0.0, 0.0, 0.0, 0.019.82, 0
0, 0.0, 0.0, 0.0, 0.0, 0.0, 0.00.0, 0
548207, -0.38, -0.0, -0.0, 0.0, 0.0, 0.019.96, 0
548425, -0.43, -0.0, -0.0, 0.0, 0.0, 0.019.91, 0
0, 0.0, 0.0, 0.0, 0.0, 0.0, 0.00.0, 0
548969, -0.43, -0.0, -0.0, 0.0, 0.0, 0.019.96, 0
0, 0.0, 0.0, 0.0, 0.0, 0.0, 0.00.0, 0
549499, -0.45, -0.0, -0.0, 0.0, 0.0, 0.019.96, 0
549627, -0.42, -0.0, -0.0, 0.0, 0.0, 0.020.01, 0
549839, -0.37, -0.0, -0.0, 0.0, 0.0, 0.020.1, 0
0, 0.0, 0.0, 0.0, 0.0, 0.0, 0.00.0, 0
550383, -0.42, -0.0, -0.0, 0.0, 0.0, 0.020.15, 0
550672, -0.43, -0.0, -0.0, 0.0, 0.0, 0.020.15, 0
550819, -0.41, -0.0, -0.0, 0.0, 0.0, 0.020.24, 0
551035, -0.4, -0.0, -0.0, 0.0, 0.0, 0.020.2, 0
551330, -0.43, -0.0, -0.0, 0.0, 0.0, 0.020.1, 0
0, 0.0, 0.0, 0.0, 0.0, 0.0, 0.00.0, 0
551798, -0.42, -0.0, -0.0, 0.0, 0.0, 0.020.2, 0
552087, -0.39, -0.0, -0.0, 0.0, 0.0, 0.020.2, 0
552307, -0.46, -0.0, -0.0, 0.0, 0.0, 0.020.24, 0
552444, -0.43, -0.0, -0.0, 0.0, 0.0, 0.020.24, 0
552645, -0.42, -0.0, -0.0, 0.0, 0.0, 0.020.24, 0
552768, -0.45, -0.0, -0.0, 0.0, 0.0, 0.020.1, 0
553065, -0.41, -0.0, -0.0, -0.01, -0.01, -0.0120.38, 0
553208, -0.43, -0.0, -0.0, 0.0, 0.0, 0.020.2, 0
553497, -0.38, -0.0, -0.0, 0.0, 0.0, 0.020.2, 0
553634, -0.39, -0.0, -0.0, 0.0, 0.0, 0.020.29, 0
553831, -0.44, -0.0, -0.0, 0.0, 0.0, 0.020.34, 0
553958, -0.41, -0.0, -0.0, 0.0, 0.0, 0.020.2, 0
0, 0.0, 0.0, 0.0, 0.0, 0.0, 0.00.0, 0
554497, -0.38, -0.0, -0.0, 0.0, 0.0, 0.020.29, 0
554793, -0.45, -0.0, -0.0, 0.0, 0.0, 0.020.29, 0
0, 0.0, 0.0, 0.0, 0.0, 0.0, 0.00.0, 0
555262, -0.39, -0.0, -0.0, 0.0, 0.0, 0.020.29, 0
555551, -0.35, -0.0, -0.0, 0.0, 0.0, 0.020.29, 0
555693, -0.37, -0.0, -0.0, 0.0, 0.0, 0.020.29, 0
555907, -0.4, -0.0, -0.0, 0.0, 0.0, 0.020.34, 0
556107, -0.34, -0.0, -0.0, 0.0, 0.0, 0.020.24, 0
556231, -0.39, -0.0, -0.0, 0.0, 0.0, 0.020.2, 0
556450, -0.39, -0.0, -0.0, 0.0, 0.0, 0.020.24, 0
556667, -0.39, -0.0, -0.0, 0.0, 0.0, 0.020.29, 0
556956, -0.37, -0.0, -0.0, 0.0, 0.0, 0.020.2, 0
557097, -0.34, -0.0, -0.0, 0.0, 0.0, 0.020.29, 0
557314, -0.42, -0.0, -0.0, 0.0, 0.0, 0.020.24, 0
557607, -0.4, -0.0, -0.0, 0.0, 0.0, 0.020.24, 0
0, 0.0, 0.0, 0.0, 0.0, 0.0, 0.00.0, 0
558075, -0.38, -0.0, -0.0, 0.0, 0.0, 0.020.24, 0
558364, -0.43, -0.0, -0.0, 0.0, 0.0, 0.020.2, 0
558581, -0.39, -0.0, -0.0, 0.0, 0.0, 0.020.29, 0
0, 0.0, 0.0, 0.0, 0.0, 0.0, 0.00.0, 0
559043, -0.45, -0.0, -0.0, 0.0, 0.0, 0.020.24, 0
559335, -0.41, -0.0, -0.0, 0.0, 0.0, 0.020.24, 0
0, 0.0, 0.0, 0.0, 0.0, 0.0, 0.00.0, 0
559803, -0.44, -0.0, -0.0, 0.0, 0.0, 0.020.24, 0
560020, -0.43, -0.0, -0.0, 0.0, 0.0, 0.020.2, 0
560315, -0.4, -0.0, -0.0, 0.0, 0.0, 0.020.2, 0
560452, -0.39, -0.0, -0.0, 0.0, 0.0, 0.020.1, 0
560653, -0.34, -0.0, -0.0, 0.0, 0.0, 0.020.29, 0
560776, -0.41, -0.0, -0.0, 0.0, 0.0, 0.020.15, 0
561069, -0.41, -0.0, -0.0, 0.0, 0.0, 0.020.15, 0
561212, -0.42, -0.0, -0.0, 0.0, 0.0, 0.020.15, 0
561501, -0.42, -0.0, -0.0, 0.0, 0.0, 0.020.15, 0
561640, -0.37, -0.0, -0.0, 0.0, 0.0, 0.020.15, 0
561859, -0.42, -0.0, -0.0, 0.0, 0.0, 0.020.15, 0
562146, -0.42, -0.0, -0.0, 0.0, 0.0, 0.020.1, 0
0, 0.0, 0.0, 0.0, 0.0, 0.0, 0.00.0, 0
562606, -0.4, -0.0, -0.0, 0.0, 0.0, 0.020.15, 0
562731, -0.39, -0.0, -0.0, 0.0, 0.0, 0.020.2, 0
562951, -0.41, -0.0, -0.0, 0.0, 0.0, 0.020.15, 0
563162, -0.39, -0.0, -0.0, 0.0, 0.0, 0.020.2, 0
563381, -0.43, -0.0, -0.0, 0.0, 0.0, 0.020.05, 0
563597, -0.33, -0.0, -0.0, 0.0, 0.0, 0.020.1, 0
563890, -0.41, -0.0, -0.0, 0.0, 0.0, 0.020.1, 0
0, 0.0, 0.0, 0.0, 0.0, 0.0, 0.00.0, 0
564358, -0.38, -0.0, -0.0, 0.0, 0.0, 0.020.1, 0
564572, -0.41, -0.0, -0.0, 0.0, 0.0, 0.020.05, 0
564864, -0.39, -0.0, -0.0, 0.0, 0.0, 0.020.05, 0
0, 0.0, 0.0, 0.0, 0.0, 0.0, 0.00.0, 0
565331, -0.46, -0.0, -0.0, 0.0, 0.0, 0.020.1, 0
565624, -0.42, -0.0, -0.0, 0.0, 0.0, 0.020.01, 0
0, 0.0, 0.0, 0.0, 0.0, 0.0, 0.00.0, 0
566092, -0.37, -0.0, -0.0, 0.0, 0.0, 0.020.01, 0
566385, -0.46, -0.0, -0.0, 0.0, 0.0, 0.020.01, 0
566602, -0.36, -0.0, -0.0, 0.0, 0.0, 0.020.05, 0
566739, -0.39, -0.0, -0.0, 0.0, 0.0, 0.020.05, 0
566940, -0.45, -0.0, -0.0, 0.0, 0.0, 0.019.96, 0
567063, -0.39, -0.0, -0.0, 0.0, 0.0, 0.020.1, 0
567358, -0.41, -0.0, -0.0, 0.0, 0.0, 0.019.96, 0
0, 0.0, 0.0, 0.0, 0.0, 0.0, 0.00.0, 0
567826, -0.42, -0.0, -0.0, 0.0, 0.0, 0.020.01, 0
568115, -0.4, -0.0, -0.0, 0.0, 0.0, 0.019.91, 0
568334, -0.4, -0.0, -0.0, 0.0, 0.0, 0.019.96, 0
568471, -0.41, -0.0, -0.0, 0.0, 0.0, 0.020.05, 0
568672, -0.41, -0.0, -0.0, 0.0, 0.0, 0.020.01, 0
568795, -0.38, -0.0, -0.0, 0.0, 0.0, 0.020.01, 0
569091, -0.38, -0.0, -0.0, 0.0, 0.0, 0.019.96, 0
569235, -0.41, -0.0, -0.0, 0.0, 0.0, 0.019.96, 0
569524, -0.42, -0.0, -0.0, 0.0, 0.0, 0.019.87, 0
569741, -0.37, -0.0, -0.0, 0.0, 0.0, 0.019.82, 0
569878, -0.38, -0.0, -0.0, 0.0, 0.0, 0.019.91, 0
570077, -0.36, -0.0, -0.0, 0.0, 0.0, 0.019.91, 0
570205, -0.45, -0.0, -0.0, 0.0, 0.0, 0.019.87, 0
570496, -0.42, -0.0, -0.0, 0.0, 0.0, 0.019.87, 0
0, 0.0, 0.0, 0.0, 0.0, 0.0, 0.00.0, 0
570966, -0.37, -0.0, -0.0, 0.0, 0.0, 0.019.96, 0
571179, -0.35, -0.0, -0.0, 0.0, 0.0, 0.019.91, 0
571472, -0.37, -0.0, -0.0, 0.0, 0.0, 0.019.82, 0
571609, -0.42, -0.0, -0.0, 0.0, 0.0, 0.019.82, 0
571811, -0.41, -0.0, -0.0, 0.0, 0.0, 0.019.82, 0
571934, -0.39, -0.0, -0.0, 0.0, 0.0, 0.019.87, 0
572148, -0.44, -0.0, -0.0, 0.0, 0.0, 0.019.82, 0
572365, -0.38, -0.0, -0.0, 0.0, 0.0, 0.019.87, 0
572657, -0.39, -0.0, -0.0, 0.0, 0.0, 0.019.77, 0
572872, -0.38, -0.0, -0.0, 0.0, 0.0, 0.019.82, 0
573124, -0.44, -0.0, -0.0, 0.0, 0.0, 0.019.82, 0
573324, -0.43, -0.0, -0.0, 0.0, 0.0, 0.019.73, 0
0, 0.0, 0.0, 0.0, 0.0, 0.0, 0.00.0, 0
573793, -0.38, -0.0, -0.0, 0.0, 0.0, 0.019.73, 0
574082, -0.4, -0.0, -0.0, 0.0, 0.0, 0.019.82, 0
574226, -0.38, -0.0, -0.0, 0.0, 0.0, 0.019.82, 0
574446, -0.4, -0.0, -0.0, 0.0, 0.0, 0.019.77, 0
574739, -0.38, -0.0, -0.0, 0.0, 0.0, 0.019.68, 0
0, 0.0, 0.0, 0.0, 0.0, 0.0, 0.00.0, 0
575207, -0.37, -0.0, -0.0, 0.0, 0.0, 0.019.68, 0
575497, -0.4, -0.0, -0.0, 0.0, 0.0, 0.019.63, 0
575640, -0.39, -0.0, -0.0, 0.0, 0.0, 0.019.63, 0
575854, -0.36, -0.0, -0.0, 0.0, 0.0, 0.019.63, 0
576075, -0.32, -0.0, -0.0, 0.0, 0.0, 0.019.68, 0
576291, -0.4, -0.0, -0.0, 0.0, 0.0, 0.019.63, 0
576580, -0.39, -0.0, -0.0, 0.0, 0.0, 0.019.54, 0
576797, -0.4, -0.0, -0.0, 0.0, 0.0, 0.019.58, 0
0, 0.0, 0.0, 0.0, 0.0, 0.0, 0.00.0, 0
577249, -0.38, -0.0, -0.0, 0.0, 0.0, 0.019.54, 0
577377, -0.38, -0.0, -0.0, 0.0, 0.0, 0.019.63, 0
577591, -0.39, -0.0, -0.0, 0.0, 0.0, 0.019.54, 0
577808, -0.41, -0.0, -0.0, 0.0, 0.0, 0.019.49, 0
578028, -0.39, -0.0, -0.0, 0.0, 0.0, 0.019.54, 0
578245, -0.39, -0.0, -0.0, 0.0, 0.0, 0.019.58, 0
578536, -0.43, -0.0, -0.0, 0.0, 0.0, 0.019.58, 0
0, 0.0, 0.0, 0.0, 0.0, 0.0, 0.00.0, 0
578999, -0.39, -0.0, -0.0, 0.0, 0.0, 0.019.54, 0
579293, -0.46, -0.0, -0.0, 0.0, 0.0, 0.019.49, 0
0, 0.0, 0.0, 0.0, 0.0, 0.0, 0.00.0, 0
579750, -0.39, -0.0, -0.0, 0.0, 0.0, 0.019.44, 0
579874, -0.38, -0.0, -0.0, 0.0, 0.0, 0.019.49, 0
580091, -0.42, -0.0, -0.0, 0.0, 0.0, 0.019.44, 0
580379, -0.4, -0.0, -0.0, 0.0, 0.0, 0.019.44, 0
580596, -0.39, -0.0, -0.0, 0.0, 0.0, 0.019.49, 0
580733, -0.36, -0.0, -0.0, 0.0, 0.0, 0.019.44, 0
580934, -0.39, -0.0, -0.0, 0.0, 0.0, 0.019.4, 0
581129, -0.42, -0.0, -0.0, 0.0, 0.0, 0.019.49, 0
581348, -0.36, -0.0, -0.0, 0.0, 0.0, 0.019.44, 0
581480, -0.42, -0.0, -0.0, 0.0, 0.0, 0.019.4, 0
581768, -0.43, -0.0, -0.0, 0.0, 0.0, 0.019.44, 0
0, 0.0, 0.0, 0.0, 0.0, 0.0, 0.00.0, 0
582236, -0.38, -0.0, -0.0, 0.0, 0.0, 0.019.3, 0
582525, -0.43, -0.0, -0.0, 0.0, 0.0, 0.019.35, 0
582742, -0.43, -0.0, -0.0, 0.0, 0.0, 0.019.3, 0
0, 0.0, 0.0, 0.0, 0.0, 0.0, 0.00.0, 0
583213, -0.38, -0.0, -0.0, 0.0, 0.0, 0.019.4, 0
583506, -0.37, -0.0, -0.0, 0.0, 0.0, 0.019.21, 0
0, 0.0, 0.0, 0.0, 0.0, 0.0, 0.00.0, 0
583972, -0.42, -0.0, -0.0, 0.0, 0.0, 0.019.25, 0
0, 0.0, 0.0, 0.0, 0.0, 0.0, 0.00.0, 0
584585, -0.38, -0.0, -0.0, 0.0, 0.0, 0.019.25, 0
584727, -0.41, -0.0, -0.0, 0.0, 0.0, 0.019.25, 0
584940, -0.43, -0.0, -0.0, 0.0, 0.0, 0.019.21, 0
585144, -0.39, -0.0, -0.0, 0.0, 0.0, 0.019.21, 0
585267, -0.41, -0.0, -0.0, 0.0, 0.0, 0.019.3, 0
585559, -0.35, -0.0, -0.0, 0.0, 0.0, 0.019.25, 0
0, 0.0, 0.0, 0.0, 0.0, 0.0, 0.00.0, 0
586027, -0.45, -0.0, -0.0, 0.0, 0.0, 0.019.16, 0
586242, -0.4, -0.0, -0.0, 0.0, 0.0, 0.019.21, 0
0, 0.0, 0.0, 0.0, 0.0, 0.0, 0.00.0, 0
586789, -0.38, -0.0, -0.0, 0.0, 0.0, 0.019.16, 0
587079, -0.43, -0.0, -0.0, 0.0, 0.0, 0.019.16, 0
587300, -0.39, -0.0, -0.0, 0.0, 0.0, 0.019.21, 0
0, 0.0, 0.0, 0.0, 0.0, 0.0, 0.00.0, 0
587768, -0.39, -0.0, -0.0, 0.0, 0.0, 0.019.16, 0
587982, -0.39, -0.0, -0.0, 0.0, 0.0, 0.019.16, 0
0, 0.0, 0.0, 0.0, 0.0, 0.0, 0.00.0, 0
588525, -0.35, -0.0, -0.0, 0.0, 0.0, 0.019.16, 0
588817, -0.3, -0.0, -0.0, 0.0, 0.0, 0.019.25, 0
588964, -0.39, -0.0, -0.0, 0.0, 0.0, 0.019.25, 0
589182, -0.39, -0.0, -0.0, 0.0, 0.0, 0.019.3, 0
589472, -0.41, -0.0, -0.0, 0.0, 0.0, 0.019.21, 0
0, 0.0, 0.0, 0.0, 0.0, 0.0, 0.00.0, 0
589939, -0.39, -0.0, -0.0, 0.0, 0.0, 0.019.4, 0
0, 0.0, 0.0, 0.0, 0.0, 0.0, 0.00.0, 0
590467, -0.37, -0.0, -0.0, 0.0, 0.0, 0.019.49, 0
590666, -0.43, -0.0, -0.0, 0.0, 0.0, 0.019.49, 0
590804, -0.37, -0.0, -0.0, 0.0, 0.0, 0.019.49, 0
591005, -0.42, -0.0, -0.0, 0.0, 0.0, 0.019.54, 0
591128, -0.38, -0.0, -0.0, 0.0, 0.0, 0.019.49, 0
591346, -0.35, -0.0, -0.0, 0.0, 0.0, 0.019.54, 0
591559, -0.41, -0.0, -0.0, 0.0, 0.0, 0.019.49, 0
591852, -0.38, -0.0, -0.0, 0.0, 0.0, 0.019.58, 0
0, 0.0, 0.0, 0.0, 0.0, 0.0, 0.00.0, 0
592307, -0.41, -0.0, -0.0, 0.0, 0.0, 0.019.63, 0
592432, -0.36, -0.0, -0.0, 0.0, 0.0, 0.019.63, 0
0, 0.0, 0.0, 0.0, 0.0, 0.0, 0.00.0, 0
592971, -0.41, -0.0, -0.0, 0.0, 0.0, 0.019.68, 0
0, 0.0, 0.0, 0.0, 0.0, 0.0, 0.00.0, 0
593514, -0.39, -0.0, -0.0, 0.0, 0.0, 0.019.73, 0
0, 0.0, 0.0, 0.0, 0.0, 0.0, 0.00.0, 0
594133, -0.41, -0.0, -0.0, 0.0, 0.0, 0.019.73, 0
594348, -0.42, -0.0, -0.0, 0.0, 0.0, 0.019.77, 0
0, 0.0, 0.0, 0.0, 0.0, 0.0, 0.00.0, 0
594816, -0.35, -0.0, -0.0, 0.0, 0.0, 0.019.73, 0
595105, -0.43, -0.0, -0.0, 0.0, 0.0, 0.019.82, 0
595255, -0.38, -0.0, -0.0, 0.0, 0.0, 0.019.73, 0
595488, -0.35, -0.0, -0.0, 0.0, 0.0, 0.019.73, 0
595687, -0.39, -0.0, -0.0, 0.0, 0.0, 0.019.73, 0
595817, -0.4, -0.0, -0.0, 0.0, 0.0, 0.019.63, 0
596104, -0.36, -0.0, -0.0, 0.0, 0.0, 0.019.77, 0
596249, -0.44, -0.0, -0.0, 0.0, 0.0, 0.019.77, 0
596538, -0.43, -0.0, -0.0, 0.0, 0.0, 0.019.77, 0
596755, -0.42, -0.0, -0.0, 0.0, 0.0, 0.019.73, 0
0, 0.0, 0.0, 0.0, 0.0, 0.0, 0.00.0, 0
597225, -0.41, -0.0, -0.0, 0.0, 0.0, 0.019.73, 0
597438, -0.41, -0.0, -0.0, 0.0, 0.0, 0.019.82, 0
597659, -0.4, -0.0, -0.0, 0.0, 0.0, 0.019.68, 0
597872, -0.41, -0.0, -0.0, 0.0, 0.0, 0.019.82, 0
598162, -0.41, -0.0, -0.0, 0.0, 0.0, 0.019.77, 0
0, 0.0, 0.0, 0.0, 0.0, 0.0, 0.00.0, 0
598631, -0.4, -0.0, -0.0, 0.0, 0.0, 0.019.82, 0
598920, -0.39, -0.0, -0.0, 0.0, 0.0, 0.019.63, 0
599132, -0.39, -0.0, -0.0, 0.0, 0.0, 0.019.77, 0
0, 0.0, 0.0, 0.0, 0.0, 0.0, 0.00.0, 0
599589, -0.39, -0.0, -0.0, 0.0, 0.0, 0.019.63, 0
599716, -0.43, -0.0, -0.0, 0.0, 0.0, 0.019.77, 0
599929, -0.38, -0.0, -0.0, 0.0, 0.0, 0.019.73, 0
600146, -0.42, -0.0, -0.0, 0.0, 0.0, 0.019.77, 0
0, 0.0, 0.0, 0.0, 0.0, 0.0, 0.00.0, 0
600686, -0.42, -0.0, -0.0, 0.0, 0.0, 0.019.73, 0
600978, -0.37, -0.0, -0.0, 0.0, 0.0, 0.019.73, 0
601106, -0.41, -0.0, -0.0, 0.0, 0.0, 0.019.77, 0
601398, -0.39, -0.0, -0.0, 0.0, 0.0, 0.019.73, 0
601615, -0.4, -0.0, -0.0, 0.0, 0.0, 0.019.77, 0
601752, -0.45, -0.0, -0.0, 0.0, 0.0, 0.019.68, 0
601953, -0.38, -0.0, -0.0, 0.0, 0.0, 0.019.68, 0
602076, -0.39, -0.0, -0.0, 0.0, 0.0, 0.019.68, 0
602283, -0.39, -0.0, -0.0, 0.0, 0.0, 0.019.68, 0
602484, -0.46, -0.0, -0.0, 0.0, 0.0, 0.019.68, 0
602701, -0.32, -0.0, -0.0, 0.0, 0.0, 0.019.63, 0
0, 0.0, 0.0, 0.0, 0.0, 0.0, 0.00.0, 0
603170, -0.4, -0.0, -0.0, 0.0, 0.0, 0.019.68, 0
603460, -0.39, -0.0, -0.0, 0.0, 0.0, 0.019.73, 0
0, 0.0, 0.0, 0.0, 0.0, 0.0, 0.00.0, 0
603925, -0.39, -0.0, -0.0, 0.0, 0.0, 0.019.68, 0
604214, -0.37, -0.0, -0.0, 0.0, 0.0, 0.019.58, 0
604431, -0.36, -0.0, -0.0, 0.0, 0.0, 0.019.73, 0
0, 0.0, 0.0, 0.0, 0.0, 0.0, 0.00.0, 0
604895, -0.36, -0.0, -0.0, 0.0, 0.0, 0.019.63, 0
605188, -0.36, -0.0, -0.0, 0.0, 0.0, 0.019.63, 0
0, 0.0, 0.0, 0.0, 0.0, 0.0, 0.00.0, 0
605656, -0.41, -0.0, -0.0, 0.0, 0.0, 0.019.54, 0
605945, -0.38, -0.0, -0.0, 0.0, 0.0, 0.019.68, 0
606160, -0.45, -0.0, -0.0, -0.01, -0.01, -0.0119.63, 0
0, 0.0, 0.0, 0.0, 0.0, 0.0, 0.00.0, 0
606627, -0.39, -0.0, -0.0, 0.0, 0.0, 0.019.63, 0
606919, -0.38, -0.0, -0.0, 0.0, 0.0, 0.019.63, 0
0, 0.0, 0.0, 0.0, 0.0, 0.0, 0.00.0, 0
607386, -0.45, -0.0, -0.0, 0.0, 0.0, 0.019.49, 0
607675, -0.37, -0.0, -0.0, 0.0, 0.0, 0.019.68, 0
607892, -0.39, -0.0, -0.0, 0.0, 0.0, 0.019.54, 0
608029, -0.45, -0.0, -0.0, 0.0, 0.0, 0.019.54, 0
608231, -0.4, -0.0, -0.0, 0.0, 0.0, 0.019.58, 0
608357, -0.42, -0.0, -0.0, 0.0, 0.0, 0.019.44, 0
608649, -0.46, -0.0, -0.0, 0.0, 0.0, 0.019.54, 0
0, 0.0, 0.0, 0.0, 0.0, 0.0, 0.00.0, 0
609189, -0.41, -0.0, -0.0, 0.0, 0.0, 0.019.54, 0
609326, -0.44, -0.0, -0.0, 0.0, 0.0, 0.019.54, 0
609525, -0.42, -0.0, -0.0, 0.0, 0.0, 0.019.58, 0
609648, -0.41, -0.0, -0.0, 0.0, 0.0, 0.019.54, 0
609866, -0.31, -0.0, -0.0, 0.0, 0.0, 0.019.49, 0
610082, -0.39, -0.0, -0.0, 0.0, 0.0, 0.019.54, 0
610374, -0.42, -0.0, -0.0, -0.01, -0.01, -0.0119.54, 0
0, 0.0, 0.0, 0.0, 0.0, 0.0, 0.00.0, 0
610842, -0.43, -0.0, -0.0, 0.0, 0.0, 0.019.44, 0
611128, -0.38, -0.0, -0.0, 0.0, 0.0, 0.019.54, 0
611271, -0.32, -0.0, -0.0, 0.0, 0.0, 0.019.44, 0
611485, -0.36, -0.0, -0.0, 0.0, 0.0, 0.019.4, 0
611686, -0.35, -0.0, -0.0, 0.0, 0.0, 0.019.4, 0
611809, -0.4, -0.0, -0.0, 0.0, 0.0, 0.019.44, 0
612103, -0.36, -0.0, -0.0, 0.0, 0.0, 0.019.49, 0
0, 0.0, 0.0, 0.0, 0.0, 0.0, 0.00.0, 0
612572, -0.39, -0.0, -0.0, 0.0, 0.0, 0.019.35, 0
612861, -0.42, -0.0, -0.0, 0.0, 0.0, 0.019.54, 0
0, 0.0, 0.0, 0.0, 0.0, 0.0, 0.00.0, 0
613330, -0.42, -0.0, -0.0, 0.0, 0.0, 0.019.44, 0
613543, -0.42, -0.0, -0.0, 0.0, 0.0, 0.019.4, 0
613764, -0.4, -0.0, -0.0, 0.0, 0.0, 0.019.35, 0
0, 0.0, 0.0, 0.0, 0.0, 0.0, 0.00.0, 0
614306, -0.35, -0.0, -0.0, 0.0, 0.0, 0.019.44, 0
614595, -0.39, -0.0, -0.0, 0.0, 0.0, 0.019.35, 0
0, 0.0, 0.0, 0.0, 0.0, 0.0, 0.00.0, 0
615133, -0.43, -0.0, -0.0, 0.0, 0.0, 0.019.3, 0
615273, -0.41, -0.0, -0.0, 0.0, 0.0, 0.019.4, 0
615467, -0.39, -0.0, -0.0, 0.0, 0.0, 0.019.4, 0
615605, -0.37, -0.0, -0.0, 0.0, 0.0, 0.019.35, 0
615806, -0.37, -0.0, -0.0, 0.0, 0.0, 0.019.35, 0
616005, -0.4, -0.0, -0.0, 0.0, 0.0, 0.019.3, 0
0, 0.0, 0.0, 0.0, 0.0, 0.0, 0.00.0, 0
616475, -0.4, -0.0, -0.0, 0.0, 0.0, 0.019.3, 0
616764, -0.37, -0.0, -0.0, 0.0, 0.0, 0.019.21, 0
616905, -0.39, -0.0, -0.0, 0.0, 0.0, 0.019.4, 0
0, 0.0, 0.0, 0.0, 0.0, 0.0, 0.00.0, 0
617436, -0.41, -0.0, -0.0, 0.0, 0.0, 0.019.4, 0
617562, -0.36, -0.0, -0.0, 0.0, 0.0, 0.019.25, 0
617775, -0.41, -0.0, -0.0, 0.0, 0.0, 0.019.25, 0
618059, -0.37, -0.0, -0.0, 0.0, 0.0, 0.019.21, 0
0, 0.0, 0.0, 0.0, 0.0, 0.0, 0.00.0, 0
618523, -0.36, -0.0, -0.0, 0.0, 0.0, 0.019.16, 0
618816, -0.3, -0.0, -0.0, 0.0, 0.0, 0.019.21, 0
0, 0.0, 0.0, 0.0, 0.0, 0.0, 0.00.0, 0
619268, -0.43, -0.0, -0.0, 0.0, 0.0, 0.019.35, 0
619397, -0.42, -0.0, -0.0, 0.0, 0.0, 0.019.16, 0
619614, -0.41, -0.0, -0.0, 0.0, 0.0, 0.019.25, 0
619903, -0.4, -0.0, -0.0, 0.0, 0.0, 0.019.25, 0
0, 0.0, 0.0, 0.0, 0.0, 0.0, 0.00.0, 0
620359, -0.4, -0.0, -0.0, 0.0, 0.0, 0.019.16, 0
620483, -0.37, -0.0, -0.0, 0.0, 0.0, 0.019.25, 0
0, 0.0, 0.0, 0.0, 0.0, 0.0, 0.00.0, 0
621028, -0.41, -0.0, -0.0, 0.0, 0.0, 0.019.16, 0
621321, -0.38, -0.0, -0.0, 0.0, 0.0, 0.019.21, 0
0, 0.0, 0.0, 0.0, 0.0, 0.0, 0.00.0, 0
621789, -0.42, -0.0, -0.0, 0.0, 0.0, 0.019.07, 0
622079, -0.36, -0.0, -0.0, 0.0, 0.0, 0.019.16, 0
622296, -0.32, -0.0, -0.0, 0.0, 0.0, 0.019.11, 0
0, 0.0, 0.0, 0.0, 0.0, 0.0, 0.00.0, 0
622748, -0.41, -0.0, -0.0, 0.0, 0.0, 0.019.07, 0
622876, -0.41, -0.0, -0.0, 0.0, 0.0, 0.019.11, 0
623089, -0.39, -0.0, -0.0, 0.0, 0.0, 0.019.16, 0
623290, -0.38, -0.0, -0.0, 0.0, 0.0, 0.019.11, 0
623413, -0.4, -0.0, -0.0, 0.0, 0.0, 0.019.16, 0
623706, -0.37, -0.0, -0.0, 0.0, 0.0, 0.019.07, 0
0, 0.0, 0.0, 0.0, 0.0, 0.0, 0.00.0, 0
624175, -0.39, -0.0, -0.0, 0.0, 0.0, 0.019.07, 0
624393, -0.38, -0.0, -0.0, 0.0, 0.0, 0.019.07, 0
624610, -0.34, -0.0, -0.0, 0.0, 0.0, 0.019.07, 0
624823, -0.37, -0.0, -0.0, 0.0, 0.0, 0.019.11, 0
625116, -0.42, -0.0, -0.0, 0.0, 0.0, 0.019.02, 0
625261, -0.37, -0.0, -0.0, 0.0, 0.0, 0.019.11, 0
625550, -0.38, -0.0, -0.0, 0.0, 0.0, 0.018.93, 0
625767, -0.41, -0.0, -0.0, 0.0, 0.0, 0.019.07, 0
0, 0.0, 0.0, 0.0, 0.0, 0.0, 0.00.0, 0
626234, -0.43, -0.0, -0.0, 0.0, 0.0, 0.018.97, 0
626526, -0.33, -0.0, -0.0, 0.0, 0.0, 0.019.07, 0
0, 0.0, 0.0, 0.0, 0.0, 0.0, 0.00.0, 0
626994, -0.35, -0.0, -0.0, 0.0, 0.0, 0.019.11, 0
627283, -0.39, -0.0, -0.0, 0.0, 0.0, 0.019.02, 0
627424, -0.38, -0.0, -0.0, 0.0, 0.0, 0.019.02, 0
627638, -0.39, -0.0, -0.0, 0.0, 0.0, 0.018.97, 0
627835, -0.32, -0.0, -0.0, 0.0, 0.0, 0.019.02, 0
627963, -0.37, -0.0, -0.0, 0.0, 0.0, 0.018.97, 0
628179, -0.42, -0.0, -0.0, 0.0, 0.0, 0.019.02, 0
628396, -0.39, -0.0, -0.0, 0.0, 0.0, 0.018.97, 0
628609, -0.37, -0.0, -0.0, 0.0, 0.0, 0.019.02, 0
628906, -0.37, -0.0, -0.0, 0.0, 0.0, 0.019.02, 0
0, 0.0, 0.0, 0.0, 0.0, 0.0, 0.00.0, 0
629372, -0.41, -0.0, -0.0, 0.0, 0.0, 0.019.07, 0
629589, -0.33, -0.0, -0.0, 0.0, 0.0, 0.018.97, 0
0, 0.0, 0.0, 0.0, 0.0, 0.0, 0.00.0, 0
630138, -0.39, -0.0, -0.0, 0.0, 0.0, 0.018.93, 0
630428, -0.37, -0.0, -0.0, 0.0, 0.0, 0.018.83, 0
630645, -0.35, -0.0, -0.0, 0.0, 0.0, 0.018.88, 0
0, 0.0, 0.0, 0.0, 0.0, 0.0, 0.00.0, 0
631112, -0.39, -0.0, -0.0, 0.0, 0.0, 0.018.83, 0
631406, -0.42, -0.0, -0.0, 0.0, 0.0, 0.018.83, 0
0, 0.0, 0.0, 0.0, 0.0, 0.0, 0.00.0, 0
631875, -0.45, -0.0, -0.0, 0.0, 0.0, 0.018.74, 0
632160, -0.35, -0.0, -0.0, 0.0, 0.0, 0.018.83, 0
632379, -0.42, -0.0, -0.0, 0.0, 0.0, 0.018.78, 0
632516, -0.36, -0.0, -0.0, 0.0, 0.0, 0.018.78, 0
632717, -0.39, -0.0, -0.0, 0.0, 0.0, 0.018.78, 0
632840, -0.41, -0.0, -0.0, 0.0, 0.0, 0.018.78, 0
633130, -0.38, -0.0, -0.0, 0.0, 0.0, 0.018.78, 0
0, 0.0, 0.0, 0.0, 0.0, 0.0, 0.00.0, 0
633584, -0.45, -0.0, -0.0, 0.0, 0.0, 0.018.74, 0
633712, -0.41, -0.0, -0.0, 0.0, 0.0, 0.018.69, 0
0, 0.0, 0.0, 0.0, 0.0, 0.0, 0.00.0, 0
634254, -0.37, -0.0, -0.0, 0.0, 0.0, 0.018.78, 0
634546, -0.4, -0.0, -0.0, 0.0, 0.0, 0.018.74, 0
0, 0.0, 0.0, 0.0, 0.0, 0.0, 0.00.0, 0
635013, -0.39, -0.0, -0.0, 0.0, 0.0, 0.018.69, 0
635306, -0.36, -0.0, -0.0, 0.0, 0.0, 0.018.74, 0
635523, -0.38, -0.0, -0.0, 0.0, 0.0, 0.018.69, 0
635660, -0.39, -0.0, -0.0, 0.0, 0.0, 0.018.69, 0
635861, -0.36, -0.0, -0.0, 0.0, 0.0, 0.018.69, 0
635984, -0.37, -0.0, -0.0, 0.0, 0.0, 0.018.64, 0
636204, -0.46, -0.0, -0.0, 0.0, 0.0, 0.018.6, 0
636422, -0.4, -0.0, -0.0, -0.01, -0.01, -0.0118.74, 0
636711, -0.44, -0.0, -0.0, 0.0, 0.0, 0.018.64, 0
636852, -0.41, -0.0, -0.0, 0.0, 0.0, 0.018.64, 0
637141, -0.36, -0.0, -0.0, 0.0, 0.0, 0.018.6, 0
637280, -0.36, -0.0, -0.0, 0.0, 0.0, 0.018.6, 0
637480, -0.42, -0.0, -0.0, 0.0, 0.0, 0.018.6, 0
637603, -0.39, -0.0, -0.0, 0.0, 0.0, 0.018.74, 0
637820, -0.39, -0.0, -0.0, 0.0, 0.0, 0.018.69, 0
638034, -0.4, -0.0, -0.0, 0.0, 0.0, 0.018.64, 0
638331, -0.36, -0.0, -0.0, 0.0, 0.0, 0.018.64, 0
0, 0.0, 0.0, 0.0, 0.0, 0.0, 0.00.0, 0
638797, -0.39, -0.0, -0.0, 0.0, 0.0, 0.018.64, 0
639089, -0.33, -0.0, -0.0, 0.0, 0.0, 0.018.6, 0
639236, -0.38, -0.0, -0.0, 0.0, 0.0, 0.018.64, 0
639525, -0.36, -0.0, -0.0, 0.0, 0.0, 0.018.64, 0
639667, -0.4, -0.0, -0.0, 0.0, 0.0, 0.018.55, 0
0, 0.0, 0.0, 0.0, 0.0, 0.0, 0.00.0, 0
640227, -0.41, -0.0, -0.0, 0.0, 0.0, 0.018.6, 0
640427, -0.39, -0.0, -0.0, 0.0, 0.0, 0.018.55, 0
640555, -0.39, -0.0, -0.0, 0.0, 0.0, 0.018.69, 0
640756, -0.4, -0.0, -0.0, 0.0, 0.0, 0.018.6, 0
640956, -0.4, -0.0, -0.0, 0.0, 0.0, 0.018.69, 0
641096, -0.41, -0.0, -0.0, 0.0, 0.0, 0.018.64, 0
0, 0.0, 0.0, 0.0, 0.0, 0.0, 0.00.0, 0
641642, -0.38, -0.0, -0.0, 0.0, 0.0, 0.018.64, 0
641855, -0.39, -0.0, -0.0, 0.0, 0.0, 0.018.6, 0
642063, -0.38, -0.0, -0.0, 0.0, 0.0, 0.018.55, 0
642280, -0.37, -0.0, -0.0, 0.0, 0.0, 0.018.6, 0
642573, -0.42, -0.0, -0.0, 0.0, 0.0, 0.018.6, 0
0, 0.0, 0.0, 0.0, 0.0, 0.0, 0.00.0, 0
643035, -0.34, -0.0, -0.0, 0.0, 0.0, 0.018.6, 0
643328, -0.39, -0.0, -0.0, 0.0, 0.0, 0.018.6, 0
0, 0.0, 0.0, 0.0, 0.0, 0.0, 0.00.0, 0
643796, -0.34, -0.0, -0.0, 0.0, 0.0, 0.018.6, 0
644009, -0.38, -0.0, -0.0, 0.0, 0.0, 0.018.6, 0
644304, -0.44, -0.0, -0.0, 0.0, 0.0, 0.018.64, 0
0, 0.0, 0.0, 0.0, 0.0, 0.0, 0.00.0, 0
644768, -0.39, -0.0, -0.0, 0.0, 0.0, 0.018.5, 0
645061, -0.36, -0.0, -0.0, 0.0, 0.0, 0.018.5, 0
0, 0.0, 0.0, 0.0, 0.0, 0.0, 0.00.0, 0
645526, -0.41, -0.0, -0.0, 0.0, 0.0, 0.018.5, 0
645739, -0.34, -0.0, -0.0, 0.0, 0.0, 0.018.55, 0
646034, -0.43, -0.0, -0.0, 0.0, 0.0, 0.018.45, 0
0, 0.0, 0.0, 0.0, 0.0, 0.0, 0.00.0, 0
646493, -0.4, -0.0, -0.0, 0.0, 0.0, 0.018.55, 0
646786, -0.33, -0.0, -0.0, 0.0, 0.0, 0.018.55, 0
0, 0.0, 0.0, 0.0, 0.0, 0.0, 0.00.0, 0
647242, -0.4, -0.0, -0.0, 0.0, 0.0, 0.018.5, 0
647366, -0.44, -0.0, -0.0, 0.0, 0.0, 0.018.55, 0
0, 0.0, 0.0, 0.0, 0.0, 0.0, 0.00.0, 0
647908, -0.41, -0.0, -0.0, 0.0, 0.0, 0.018.6, 0
648127, -39, 472, -12583048, -4, -1538, 01855, 1
648344, -0.41, -0.0, -0.0, 0.0, 0.0, 0.018.6, 0
648558, -0.37, -0.0, -0.0, 0.0, 0.0, 0.018.45, 0
648850, -0.36, -0.0, -0.0, 0.0, 0.0, 0.018.55, 0
0, 0.0, 0.0, 0.0, 0.0, 0.0, 0.00.0, 0
649318, -0.39, -0.0, -0.0, 0.0, 0.0, 0.018.55, 0
649610, -0.38, -0.0, -0.0, 0.0, 0.0, 0.018.45, 0
0, 0.0, 0.0, 0.0, 0.0, 0.0, 0.00.0, 0
650078, -0.39, -0.0, -0.0, 0.0, 0.0, 0.018.5, 0
650366, -0.43, -0.0, -0.0, 0.0, 0.0, 0.018.5, 0
650583, -0.36, -0.0, -0.0, 0.0, 0.0, 0.018.5, 0
0, 0.0, 0.0, 0.0, 0.0, 0.0, 0.00.0, 0
651124, -0.42, -0.0, -0.0, 0.0, 0.0, 0.018.45, 0
651266, -0.38, -0.0, -0.0, 0.0, 0.0, 0.018.41, 0
651482, -0.35, -0.0, -0.0, 0.0, 0.0, 0.018.55, 0
651771, -0.46, -0.0, -0.0, 0.0, 0.0, 0.018.5, 0
651988, -0.36, -0.0, -0.0, 0.0, 0.0, 0.018.5, 0
0, 0.0, 0.0, 0.0, 0.0, 0.0, 0.00.0, 0
652458, -0.38, -0.0, -0.0, 0.0, 0.0, 0.018.5, 0
652748, -0.4, -0.0, -0.0, 0.0, 0.0, 0.018.5, 0
0, 0.0, 0.0, 0.0, 0.0, 0.0, 0.00.0, 0
653216, -0.41, -0.0, -0.0, 0.0, 0.0, 0.018.6, 0
653505, -0.39, -0.0, -0.0, 0.0, 0.0, 0.018.41, 0
653722, -0.48, -0.0, -0.0, 0.0, 0.0, 0.018.55, 0
0, 0.0, 0.0, 0.0, 0.0, 0.0, 0.00.0, 0
654182, -0.41, -0.0, -0.0, 0.0, 0.0, 0.018.55, 0
654474, -0.4, -0.0, -0.0, 0.0, 0.0, 0.018.55, 0
0, 0.0, 0.0, 0.0, 0.0, 0.0, 0.00.0, 0
654944, -0.4, -0.0, -0.0, 0.0, 0.0, 0.018.6, 0
0, 0.0, 0.0, 0.0, 0.0, 0.0, 0.00.0, 0
655472, -0.39, -0.0, -0.0, 0.0, 0.0, 0.018.55, 0
50987249, -40, 473, -141, -4, -1538, 01610614596, 1
655815, -0.38, -0.0, -0.0, 0.0, 0.0, 0.018.45, 0
0, 0.0, 0.0, 0.0, 0.0, 0.0, 0.00.0, 0
656359, -0.41, -0.0, -0.0, 0.0, 0.0, 0.018.55, 0
656576, -0.43, -0.0, -0.0, 0.0, 0.0, 0.018.55, 0
656867, -0.36, -0.0, -0.0, 0.0, 0.0, 0.018.6, 0
0, 0.0, 0.0, 0.0, 0.0, 0.0, 0.00.0, 0
657331, -0.38, -0.0, -0.0, 0.0, 0.0, 0.018.6, 0
657624, -0.39, -0.0, -0.0, 0.0, 0.0, 0.018.41, 0
0, 0.0, 0.0, 0.0, 0.0, 0.0, 0.00.0, 0
658309, -0.4, -0.0, -0.0, 0.0, 0.0, 0.018.64, 0
658605, -0.37, -0.0, -0.0, 0.0, 0.0, 0.018.64, 0
0, 0.0, 0.0, 0.0, 0.0, 0.0, 0.00.0, 0
659069, -0.36, -0.0, -0.0, 0.0, 0.0, 0.018.64, 0
659361, -0.43, -0.0, -0.0, 0.0, 0.0, 0.018.55, 0
0, 0.0, 0.0, 0.0, 0.0, 0.0, 0.00.0, 0
659827, -0.39, -0.0, -0.0, 0.0, 0.0, 0.018.6, 0
660115, -0.34, -0.0, -0.0, 0.0, 0.0, 0.018.55, 0
660334, -0.41, -0.0, -0.0, 0.0, 0.0, 0.018.6, 0
660471, -0.44, -0.0, -0.0, 0.0, 0.0, 0.018.6, 0
51025088, -40, 150995413, -12583047, -4, -1538, 01610614596, 1
660795, -0.38, -0.0, -0.0, 0.0, 0.0, 0.018.64, 0
661086, -0.38, -0.0, -0.0, 0.0, 0.0, 0.018.64, 0
0, 0.0, 0.0, 0.0, 0.0, 0.0, 0.00.0, 0
661557, -0.35, -0.0, -0.0, 0.0, 0.0, 0.018.55, 0
661846, -0.4, -0.0, -0.0, 0.0, 0.0, 0.018.64, 0
661990, -0.37, -0.0, -0.0, 0.0, 0.0, 0.018.55, 0
662204, -0.37, -0.0, -0.0, 0.0, 0.0, 0.018.6, 0
662496, -0.37, -0.0, -0.0, 0.0, 0.0, 0.018.6, 0
0, 0.0, 0.0, 0.0, 0.0, 0.0, 0.00.0, 0
50994599, -38, 469, -12583051, -4, -1538, 01850, 1
663079, -0.37, -0.0, -0.0, 0.0, 0.0, 0.018.6, 0
663292, -0.41, -0.0, -0.0, 0.0, 0.0, 0.018.6, 0
663585, -0.34, -0.0, -0.0, 0.0, 0.0, 0.018.6, 0
0, 0.0, 0.0, 0.0, 0.0, 0.0, 0.00.0, 0
664041, -0.35, -0.0, -0.0, 0.0, 0.0, 0.018.64, 0
664237, -0.36, -0.0, -0.0, 0.0, 0.0, 0.018.45, 0
0, 0.0, 0.0, 0.0, 0.0, 0.0, 0.00.0, 0
664778, -0.39, -0.0, -0.0, 0.0, 0.0, 0.018.5, 0
664915, -0.39, -0.0, -0.0, 0.0, 0.0, 0.018.45, 0
665117, -0.31, -0.0, -0.0, 0.0, 0.0, 0.018.6, 0
665240, -0.4, -0.0, -0.0, 0.0, 0.0, 0.018.55, 0
665457, -0.35, -0.0, -0.0, 0.0, 0.0, 0.018.6, 0
665749, -0.38, -0.0, -0.0, 0.0, 0.0, 0.018.6, 0
665966, -0.35, -0.0, -0.0, 0.0, 0.0, 0.018.55, 0
0, 0.0, 0.0, 0.0, 0.0, 0.0, 0.00.0, 0
666431, -0.38, -0.0, -0.0, 0.0, 0.0, 0.018.55, 0
666724, -0.39, -0.0, -0.0, 0.0, 0.0, 0.018.55, 0
0, 0.0, 0.0, 0.0, 0.0, 0.0, 0.00.0, 0
667191, -0.43, -0.0, -0.0, 0.0, 0.0, 0.018.55, 0
667408, -0.4, -0.0, -0.0, 0.0, 0.0, 0.018.6, 0
667701, -0.32, -0.0, -0.0, 0.0, 0.0, 0.018.5, 0
0, 0.0, 0.0, 0.0, 0.0, 0.0, 0.00.0, 0
668159, -0.39, -0.0, -0.0, 0.0, 0.0, 0.018.5, 0
668451, -0.33, -0.0, -0.0, 0.0, 0.0, 0.018.5, 0
668582, -0.34, -0.0, -0.0, 0.0, 0.0, 0.018.5, 0
668870, -0.41, -0.0, -0.0, 0.0, 0.0, 0.018.5, 0
669011, -0.34, -0.0, -0.0, 0.0, 0.0, 0.018.6, 0
669225, -0.35, -0.0, -0.0, 0.0, 0.0, 0.018.55, 0
669426, -0.35, -0.0, -0.0, 0.0, 0.0, 0.018.55, 0
669549, -0.39, -0.0, -0.0, 0.0, 0.0, 0.018.5, 0
51001490, -38, 465, -137, -5, -1538, 0-1073739983, 1
0, 0.0, 0.0, 0.0, 0.0, 0.0, 0.00.0, 0
670309, -0.37, -0.0, -0.0, 0.0, 0.0, 0.018.5, 0
670598, -0.39, -0.0, -0.0, 0.0, 0.0, 0.018.5, 0
0, 0.0, 0.0, 0.0, 0.0, 0.0, 0.00.0, 0
671138, -0.39, -0.0, -0.0, 0.0, 0.0, 0.018.55, 0
671277, -0.39, -0.0, -0.0, 0.0, 0.0, 0.018.55, 0
671478, -0.42, -0.0, -0.0, 0.0, 0.0, 0.018.6, 0
671601, -0.38, -0.0, -0.0, 0.0, 0.0, 0.018.5, 0
671818, -0.36, -0.0, -0.0, 0.0, 0.0, 0.018.6, 0
0, 0.0, 0.0, 0.0, 0.0, 0.0, 0.00.0, 0
672361, -0.37, -0.0, -0.0, 0.0, 0.0, 0.018.41, 0
672578, -0.41, -0.0, -0.0, 0.0, 0.0, 0.018.55, 0
672798, -0.4, -0.0, -0.0, 0.0, 0.0, 0.018.5, 0
673087, -0.35, -0.0, -0.0, 0.0, 0.0, 0.018.5, 0
673220, -0.37, -0.0, -0.0, 0.0, 0.0, 0.018.5, 0
673417, -0.37, -0.0, -0.0, 0.0, 0.0, 0.018.55, 0
673544, -0.41, -0.0, -0.0, 0.0, 0.0, 0.018.6, 0
673833, -0.43, -0.0, -0.0, 0.0, 0.0, 0.018.5, 0
674049, -0.39, -0.0, -0.0, 0.0, 0.0, 0.018.55, 0
0, 0.0, 0.0, 0.0, 0.0, 0.0, 0.00.0, 0
674520, -0.37, -0.0, -0.0, 0.0, 0.0, 0.018.45, 0
674809, -0.4, -0.0, -0.0, 0.0, 0.0, 0.018.45, 0
0, 0.0, 0.0, 0.0, 0.0, 0.0, 0.00.0, 0
675162, -0.4, -0.0, -0.0, 0.0, 0.0, 0.018.5, 0
675454, -0.35, -0.0, -0.0, 0.0, 0.0, 0.018.5, 0
0, 0.0, 0.0, 0.0, 0.0, 0.0, 0.00.0, 0
675922, -0.37, -0.0, -0.0, 0.0, 0.0, 0.018.41, 0
676138, -0.38, -0.0, -0.0, 0.0, 0.0, 0.018.45, 0
676432, -0.39, -0.0, -0.0, 0.0, 0.0, 0.018.45, 0
676569, -0.38, -0.0, -0.0, 0.0, 0.0, 0.018.36, 0
676769, -0.4, -0.0, -0.0, 0.0, 0.0, 0.018.5, 0
676892, -0.41, -0.0, -0.0, 0.0, 0.0, 0.018.45, 0
677111, -0.41, -0.0, -0.0, 0.0, 0.0, 0.018.45, 0
677328, -0.39, -0.0, -0.0, 0.0, 0.0, 0.018.36, 0
677617, -0.34, -0.0, -0.0, 0.0, 0.0, 0.018.36, 0
677834, -0.4, -0.0, -0.0, 0.0, 0.0, 0.018.41, 0
677971, -0.39, -0.0, -0.0, 0.0, 0.0, 0.018.41, 0
678174, -0.39, -0.0, -0.0, 0.0, 0.0, 0.018.41, 0
51009945, -38, 469, -142, -4, -1585, 01841, 1
51008115, -38, 469, -137, -5, -1538, 01610614572, 1
0, 0.0, 0.0, 0.0, 0.0, 0.0, 0.00.0, 0
679130, -0.39, -0.0, -0.0, 0.0, 0.0, 0.018.41, 0
679347, -0.37, -0.0, -0.0, 0.0, 0.0, 0.018.36, 0
679563, -0.32, -0.0, -0.0, 0.0, 0.0, 0.018.41, 0
679700, -0.41, -0.0, -0.0, 0.0, 0.0, 0.018.41, 0
679903, -0.38, -0.0, -0.0, 0.0, 0.0, 0.018.27, 0
680029, -0.37, -0.0, -0.0, 0.0, 0.0, 0.018.41, 0
680321, -0.35, -0.0, -0.0, 0.0, 0.0, 0.018.31, 0
0, 0.0, 0.0, 0.0, 0.0, 0.0, 0.00.0, 0
680789, -0.33, -0.0, -0.0, 0.0, 0.0, 0.018.31, 0
681078, -0.36, -0.0, -0.0, 0.0, 0.0, 0.018.31, 0
0, 0.0, 0.0, 0.0, 0.0, 0.0, 0.00.0, 0
681546, -39, 150995416, -12583063, -4, -1538, 01923, 1
681768, -38, 468, -12583055, -4, -1538, 01927, 1
681768, -0.36, -0.0, -0.0, 0.0, 0.0, 0.018.31, 0
681768, -0.36, -0.0, -0.0, 0.0, 0.0, 0.018.31, 0
682338, -0.42, -0.0, -0.0, 0.0, 0.0, 0.018.22, 0
682338, -0.42, -0.0, -0.0, 0.0, 0.0, 0.018.22, 0
51013986, -38, 472, -12583049, -4, -1538, 01822, 1
683018, -0.4, -0.0, -0.0, 0.0, 0.0, 0.018.22, 0
683018, -0.4, -0.0, -0.0, 0.0, 0.0, 0.018.22, 0
683018, -0.4, -0.0, -0.0, 0.0, 0.0, 0.018.22, 0
683578, -0.39, -0.0, -0.0, 0.0, 0.0, 0.018.17, 0
683578, -0.39, -0.0, -0.0, 0.0, 0.0, 0.018.17, 0
684128, -0.34, -0.0, -0.0, 0.0, 0.0, 0.018.27, 0
684128, -0.34, -0.0, -0.0, 0.0, 0.0, 0.018.27, 0
0, 0.0, 0.0, 0.0, 0.0, 0.0, 0.00.0, 0
684698, -0.39, -0.0, -0.0, 0.0, 0.0, 0.018.27, 0
684698, -0.39, -0.0, -0.0, 0.0, 0.0, 0.018.27, 0
685249, -0.34, -0.0, -0.0, 0.0, 0.0, 0.018.27, 0
685249, -0.34, -0.0, -0.0, 0.0, 0.0, 0.018.27, 0
685767, -0.39, -0.0, -0.0, 0.0, 0.0, 0.018.22, 0
685892, -0.37, -0.0, -0.0, 0.0, 0.0, 0.018.17, 0
686101, -0.39, -0.0, -0.0, 0.0, 0.0, 0.018.36, 0
686397, -0.41, -0.0, -0.0, 0.0, 0.0, 0.018.22, 0
0, 0.0, 0.0, 0.0, 0.0, 0.0, 0.00.0, 0
686935, -0.4, -0.0, -0.0, 0.0, 0.0, 0.018.27, 0
687072, -0.38, -0.0, -0.0, 0.0, 0.0, 0.018.36, 0
687284, -0.33, -0.0, -0.0, 0.0, 0.0, 0.018.41, 0
687495, -0.4, -0.0, -0.0, 0.0, 0.0, 0.018.36, 0
687692, -0.34, -0.0, -0.0, 0.0, 0.0, 0.018.31, 0
687889, -0.42, -0.0, -0.0, 0.0, 0.0, 0.018.41, 0
688029, -0.35, -0.0, -0.0, 0.0, 0.0, 0.018.41, 0
688225, -0.4, -0.0, -0.0, 0.0, 0.0, 0.018.31, 0
688354, -0.4, -0.0, -0.0, 0.0, 0.0, 0.018.36, 0
688565, -0.33, -0.0, -0.0, 0.0, 0.0, 0.018.41, 0
688862, -0.36, -0.0, -0.0, 0.0, 0.0, 0.018.45, 0
0, 0.0, 0.0, 0.0, 0.0, 0.0, 0.00.0, 0
689327, -0.38, -0.0, -0.0, 0.0, 0.0, 0.018.36, 0
689539, -0.35, -0.0, -0.0, 0.0, 0.0, 0.018.36, 0
689737, -0.4, -0.0, -0.0, 0.0, 0.0, 0.018.5, 0
689934, -0.39, -0.0, -0.0, 0.0, 0.0, 0.018.5, 0
0, 0.0, 0.0, 0.0, 0.0, 0.0, 0.00.0, 0
690402, -0.39, -0.0, -0.0, 0.0, 0.0, 0.018.45, 0
690689, -0.35, -0.0, -0.0, 0.0, 0.0, 0.018.41, 0
690904, -0.29, -0.0, -0.0, -0.01, -0.01, -0.0118.45, 0
691043, -0.42, -0.0, -0.0, 0.0, 0.0, 0.018.5, 0
691237, -0.41, -0.0, -0.0, 0.0, 0.0, 0.018.45, 0
691438, -0.4, -0.0, -0.0, 0.0, 0.0, 0.018.41, 0
691575, -0.38, -0.0, -0.0, 0.0, 0.0, 0.018.36, 0
691773, -0.37, -0.0, -0.0, 0.0, 0.0, 0.018.45, 0
691900, -0.39, -0.0, -0.0, 0.0, 0.0, 0.018.45, 0
692117, -0.4, -0.0, -0.0, 0.0, 0.0, 0.018.41, 0
692403, -0.39, -0.0, -0.0, 0.0, 0.0, 0.018.36, 0
0, 0.0, 0.0, 0.0, 0.0, 0.0, 0.00.0, 0
692756, -0.35, -0.0, -0.0, 0.0, 0.0, 0.018.45, 0
693045, -0.38, -0.0, -0.0, 0.0, 0.0, 0.018.5, 0
0, 0.0, 0.0, 0.0, 0.0, 0.0, 0.00.0, 0
693510, -0.39, -0.0, -0.0, 0.0, 0.0, 0.018.45, 0
693802, -0.35, -0.0, -0.0, 0.0, 0.0, 0.018.36, 0
0, 0.0, 0.0, 0.0, 0.0, 0.0, 0.00.0, 0
694154, -0.42, -0.0, -0.0, 0.0, 0.0, 0.018.6, 0
694443, -0.37, -0.0, -0.0, 0.0, 0.0, 0.018.5, 0
0, 0.0, 0.0, 0.0, 0.0, 0.0, 0.00.0, 0
694795, -0.4, -0.0, -0.0, 0.0, 0.0, 0.018.64, 0
695085, -0.44, -0.0, -0.0, 0.0, 0.0, 0.018.6, 0
695227, -0.38, -0.0, -0.0, 0.0, 0.0, 0.018.5, 0
695444, -0.34, -0.0, -0.0, 0.0, 0.0, 0.018.5, 0
695659, -0.4, -0.0, -0.0, 0.0, 0.0, 0.018.55, 0
695945, -0.36, -0.0, -0.0, 0.0, 0.0, 0.018.5, 0
696159, -0.46, -0.0, -0.0, 0.0, 0.0, 0.018.64, 0
0, 0.0, 0.0, 0.0, 0.0, 0.0, 0.00.0, 0
696511, -0.39, -0.0, -0.0, 0.0, 0.0, 0.018.5, 0
696799, -0.36, -0.0, -0.0, -0.01, -0.01, -0.0118.6, 0
696936, -0.39, -0.0, -0.0, 0.0, 0.0, 0.018.6, 0
697138, -0.36, -0.0, -0.0, 0.0, 0.0, 0.018.5, 0
697260, -0.36, -0.0, -0.0, 0.0, 0.0, 0.018.55, 0
697550, -0.36, -0.0, -0.0, 0.0, 0.0, 0.018.5, 0
0, 0.0, 0.0, 0.0, 0.0, 0.0, 0.00.0, 0
697902, -0.4, -0.0, -0.0, 0.0, 0.0, 0.018.6, 0
698192, -0.43, -0.0, -0.0, 0.0, 0.0, 0.018.45, 0
698430, -0.39, -0.0, -0.0, 0.0, 0.0, 0.018.5, 0
698575, -0.37, -0.0, -0.0, 0.0, 0.0, 0.018.55, 0
698786, -0.4, -0.0, -0.0, 0.0, 0.0, 0.018.55, 0
699002, -0.37, -0.0, -0.0, 0.0, 0.0, 0.018.5, 0
0, 0.0, 0.0, 0.0, 0.0, 0.0, 0.00.0, 0
699432, -0.43, -0.0, -0.0, 0.0, 0.0, 0.018.5, 0
699719, -0.38, -0.0, -0.0, 0.0, 0.0, 0.018.55, 0
699858, -0.39, -0.0, -0.0, 0.0, 0.0, 0.018.6, 0
700053, -0.36, -0.0, -0.0, 0.0, 0.0, 0.018.45, 0
700250, -0.36, -0.0, -0.0, 0.0, 0.0, 0.018.55, 0
700387, -0.38, -0.0, -0.0, 0.0, 0.0, 0.018.45, 0
700585, -0.39, -0.0, -0.0, 0.0, 0.0, 0.018.45, 0
700785, -0.35, -0.0, -0.0, 0.0, 0.0, 0.018.45, 0
0, 0.0, 0.0, 0.0, 0.0, 0.0, 0.00.0, 0
701251, -0.38, -0.0, -0.0, 0.0, 0.0, 0.018.41, 0
701463, -0.37, -0.0, -0.0, 0.0, 0.0, 0.018.5, 0
701660, -0.37, -0.0, -0.0, 0.0, 0.0, 0.018.55, 0
701857, -0.41, -0.0, -0.0, 0.0, 0.0, 0.018.36, 0
702396, -0.38, -0.0, -0.0, 0.0, 0.0, 0.018.41, 0
702532, -0.39, -0.0, -0.0, 0.0, 0.0, 0.018.45, 0
702732, -33, 150995409, -12583059, -4, -1538, 41943041831, 1
702928, -0.36, -0.0, -0.0, 0.0, 0.0, 0.018.36, 0
703067, -0.36, -0.0, -0.0, 0.0, 0.0, 0.018.5, 0
0, 0.0, 0.0, 0.0, 0.0, 0.0, 0.00.0, 0
703474, -0.38, -0.0, -0.0, 0.0, 0.0, 0.018.41, 0
703597, -0.37, -0.0, -0.0, 0.0, 0.0, 0.018.5, 0
703886, -0.4, -0.0, -0.0, 0.0, 0.0, 0.018.45, 0
0, 0.0, 0.0, 0.0, 0.0, 0.0, 0.00.0, 0
704357, -0.42, -0.0, -0.0, 0.0, 0.0, 0.018.5, 0
704643, -0.38, -0.0, -0.0, 0.0, 0.0, 0.018.45, 0
704783, -0.39, -0.0, -0.0, 0.0, 0.0, 0.018.5, 0
704978, -0.38, -0.0, -0.0, 0.0, 0.0, 0.018.45, 0
705180, -0.4, -0.0, -0.0, 0.0, 0.0, 0.018.5, 0
705316, -0.42, -0.0, -0.0, 0.0, 0.0, 0.018.55, 0
0, 0.0, 0.0, 0.0, 0.0, 0.0, 0.00.0, 0
705708, -0.39, -0.0, -0.0, 0.0, 0.0, 0.018.5, 0
705848, -0.39, -0.0, -0.0, 0.0, 0.0, 0.018.6, 0
706062, -0.37, -0.0, -0.0, 0.0, 0.0, 0.018.6, 0
706351, -0.35, -0.0, -0.0, 0.0, 0.0, 0.018.64, 0
706491, -0.38, -0.0, -0.0, 0.0, 0.0, 0.018.64, 0
706686, -0.4, -0.0, -0.0, 0.0, 0.0, 0.018.55, 0
706886, -0.37, -0.0, -0.0, 0.0, 0.0, 0.018.6, 0
707023, -0.39, -0.0, -0.0, 0.0, 0.0, 0.018.64, 0
707221, -0.39, -0.0, -0.0, 0.0, 0.0, 0.018.6, 0
707418, -0.37, -0.0, -0.0, 0.0, 0.0, 0.018.6, 0
707558, -0.4, -0.0, -0.0, 0.0, 0.0, 0.018.69, 0
707752, -0.4, -0.0, -0.0, 0.0, 0.0, 0.018.64, 0
707955, -0.39, -0.0, -0.0, 0.0, 0.0, 0.018.64, 0
708090, -0.43, -0.0, -0.0, 0.0, 0.0, 0.018.6, 0
708289, -0.41, -0.0, -0.0, 0.0, 0.0, 0.018.74, 0
708489, -0.37, -0.0, -0.0, 0.0, 0.0, 0.018.69, 0
708626, -0.35, -0.0, -0.0, 0.0, 0.0, 0.018.64, 0
708824, -0.34, -0.0, -0.0, 0.0, 0.0, 0.018.74, 0
709021, -0.39, -0.0, -0.0, 0.0, 0.0, 0.018.78, 0
0, 0.0, 0.0, 0.0, 0.0, 0.0, 0.00.0, 0
709484, -0.35, -0.0, -0.0, 0.0, 0.0, 0.018.78, 0
0, 0.0, 0.0, 0.0, 0.0, 0.0, 0.00.0, 0
710095, -0.39, -0.0, -0.0, 0.0, 0.0, 0.018.69, 0
0, 0.0, 0.0, 0.0, 0.0, 0.0, 0.00.0, 0
710449, -38, 475, -12583053, -4, -1538, 01878, 1
710737, -0.36, -0.0, -0.0, 0.0, 0.0, 0.018.83, 0
0, 0.0, 0.0, 0.0, 0.0, 0.0, 0.00.0, 0
711201, -0.37, -0.0, -0.0, 0.0, 0.0, 0.018.78, 0
711328, -0.41, -0.0, -0.0, 0.0, 0.0, 0.018.69, 0
711526, -0.34, -0.0, -0.0, 0.0, 0.0, 0.018.74, 0
711643, -0.39, -0.0, -0.0, 0.0, 0.0, 0.018.69, 0
711917, -0.44, -0.0, -0.0, 0.0, 0.0, 0.018.83, 0
712054, -0.34, -0.0, -0.0, 0.0, 0.0, 0.018.78, 0
712251, -0.37, -0.0, -0.0, 0.0, 0.0, 0.018.78, 0
712449, -0.39, -0.0, -0.0, 0.0, 0.0, 0.018.74, 0
712588, -0.35, -0.0, -0.0, 0.0, 0.0, 0.018.83, 0
712784, -0.39, -0.0, -0.0, -0.01, -0.01, -0.0118.64, 0
712984, -0.36, -0.0, -0.0, 0.0, 0.0, 0.018.69, 0
713121, -0.38, -0.0, -0.0, 0.0, 0.0, 0.018.78, 0
713323, -0.39, -0.0, -0.0, 0.0, 0.0, 0.018.69, 0
713447, -0.4, -0.0, -0.0, 0.0, 0.0, 0.018.64, 0
713736, -0.4, -0.0, -0.0, 0.0, 0.0, 0.018.69, 0
0, 0.0, 0.0, 0.0, 0.0, 0.0, 0.00.0, 0
714086, -0.3, -0.0, -0.0, 0.0, 0.0, 0.018.69, 0
714376, -0.34, -0.0, -0.0, 0.0, 0.0, 0.018.74, 0
714513, -0.37, -0.0, -0.0, 0.0, 0.0, 0.018.69, 0
714712, -0.35, -0.0, -0.0, 0.0, 0.0, 0.018.74, 0
714835, -0.38, -0.0, -0.0, 0.0, 0.0, 0.018.69, 0
715126, -0.38, -0.0, -0.0, 0.0, 0.0, 0.018.6, 0
0, 0.0, 0.0, 0.0, 0.0, 0.0, 0.00.0, 0
715477, -0.35, -0.0, -0.0, 0.0, 0.0, 0.018.69, 0
715767, -0.39, -0.0, -0.0, 0.0, 0.0, 0.018.6, 0
0, 0.0, 0.0, 0.0, 0.0, 0.0, 0.00.0, 0
716334, -0.41, -0.0, -0.0, 0.0, 0.0, 0.018.45, 0
716622, -0.4, -0.0, -0.0, 0.0, 0.0, 0.018.6, 0
716762, -0.45, -0.0, -0.0, 0.0, 0.0, 0.018.64, 0
716980, -0.35, -0.0, -0.0, -0.01, -0.01, -0.0118.5, 0
717191, -0.36, -0.0, -0.0, 0.0, 0.0, 0.018.55, 0
717390, -0.41, -0.0, -0.0, 0.0, 0.0, 0.018.6, 0
717586, -0.43, -0.0, -0.0, 0.0, 0.0, 0.018.6, 0
0, 0.0, 0.0, 0.0, 0.0, 0.0, 0.00.0, 0
717937, -0.42, -0.0, -0.0, 0.0, 0.0, 0.018.45, 0
718154, -0.44, -0.0, -0.0, 0.0, 0.0, 0.018.5, 0
718371, -0.38, -0.0, -0.0, 0.0, 0.0, 0.018.55, 0
718657, -0.41, -0.0, -0.0, 0.0, 0.0, 0.018.5, 0
51050445, -33, 150995411, -139, -5, -2, 01610614591, 1
718992, -0.39, -0.0, -0.0, 0.0, 0.0, 0.018.5, 0
719120, -0.44, -0.0, -0.0, 0.0, 0.0, 0.018.45, 0
719332, -0.4, -0.0, -0.0, 0.0, 0.0, 0.018.41, 0
719529, -0.42, -0.0, -0.0, 0.0, 0.0, 0.018.41, 0
719726, -0.4, -0.0, -0.0, 0.0, 0.0, 0.018.36, 0
719865, -0.38, -0.0, -0.0, 0.0, 0.0, 0.018.41, 0
720063, -0.36, -0.0, -0.0, 0.0, 0.0, 0.018.41, 0
720259, -0.4, -0.0, -0.0, 0.0, 0.0, 0.018.31, 0
0, 0.0, 0.0, 0.0, 0.0, 0.0, 0.00.0, 0
720721, -0.36, -0.0, -0.0, 0.0, 0.0, 0.018.45, 0
721011, -0.39, -0.0, -0.0, 0.0, 0.0, 0.018.45, 0
0, 0.0, 0.0, 0.0, 0.0, 0.0, 0.00.0, 0
721477, -0.34, -0.0, -0.0, 0.0, 0.0, 0.018.41, 0
721764, -0.39, -0.0, -0.0, 0.0, 0.0, 0.018.36, 0
721903, -0.34, -0.0, -0.0, 0.0, 0.0, 0.018.31, 0
722096, -0.34, -0.0, -0.0, 0.0, 0.0, 0.018.36, 0
722228, -0.41, -0.0, -0.0, 0.0, 0.0, 0.018.31, 0
722439, -0.35, -0.0, -0.0, 0.0, 0.0, 0.018.36, 0
722729, -0.39, -0.0, -0.0, 0.0, 0.0, 0.018.31, 0
0, 0.0, 0.0, 0.0, 0.0, 0.0, 0.00.0, 0
723082, -0.37, -0.0, -0.0, 0.0, 0.0, 0.018.41, 0
723372, -0.39, -0.0, -0.0, 0.0, 0.0, 0.018.36, 0
0, 0.0, 0.0, 0.0, 0.0, 0.0, 0.00.0, 0
723724, -0.42, -0.0, -0.0, 0.0, 0.0, 0.018.22, 0
723938, -0.39, -0.0, -0.0, 0.0, 0.0, 0.018.27, 0
0, 0.0, 0.0, 0.0, 0.0, 0.0, 0.00.0, 0
724552, -0.35, -0.0, -0.0, 0.0, 0.0, 0.018.27, 0
724690, -0.38, -0.0, -0.0, 0.0, 0.0, 0.018.22, 0
724889, -0.39, -0.0, -0.0, 0.0, 0.0, 0.018.22, 0
725096, -0.33, -0.0, -0.0, 0.0, 0.0, 0.018.22, 0
725293, -0.4, -0.0, -0.0, 0.0, 0.0, 0.018.17, 0
725419, -0.33, -0.0, -0.0, 0.0, 0.0, 0.018.22, 0
725707, -0.4, -0.0, -0.0, 0.0, 0.0, 0.018.27, 0
725850, -0.41, -0.0, -0.0, 0.0, 0.0, 0.018.22, 0
726138, -0.37, -0.0, -0.0, 0.0, 0.0, 0.018.17, 0
726276, -0.39, -0.0, -0.0, 0.0, 0.0, 0.018.22, 0
726474, -0.4, -0.0, -0.0, 0.0, 0.0, 0.018.27, 0
726671, -0.36, -0.0, -0.0, 0.0, 0.0, 0.018.12, 0
0, 0.0, 0.0, 0.0, 0.0, 0.0, 0.00.0, 0
727022, -0.39, -0.0, -0.0, 0.0, 0.0, 0.018.22, 0
727316, -0.36, -0.0, -0.0, 0.0, 0.0, 0.018.27, 0
0, 0.0, 0.0, 0.0, 0.0, 0.0, 0.00.0, 0
727777, -0.38, -0.0, -0.0, 0.0, 0.0, 0.018.22, 0
727993, -0.38, -0.0, -0.0, 0.0, 0.0, 0.018.27, 0
728192, -0.4, -0.0, -0.0, 0.0, 0.0, 0.018.12, 0
728390, -0.39, -0.0, -0.0, 0.0, 0.0, 0.018.22, 0
0, 0.0, 0.0, 0.0, 0.0, 0.0, 0.00.0, 0
728739, -0.4, -0.0, -0.0, 0.0, 0.0, 0.018.17, 0
729027, -0.39, -0.0, -0.0, 0.0, 0.0, 0.018.17, 0
0, 0.0, 0.0, 0.0, 0.0, 0.0, 0.00.0, 0
729489, -0.45, -0.0, -0.0, 0.0, 0.0, 0.018.22, 0
729780, -0.44, -0.0, -0.0, 0.0, 0.0, 0.018.17, 0
0, 0.0, 0.0, 0.0, 0.0, 0.0, 0.00.0, 0
730132, -0.33, -0.0, -0.0, 0.0, 0.0, 0.018.12, 0
730420, -0.37, -0.0, -0.0, 0.0, 0.0, 0.018.22, 0
0, 0.0, 0.0, 0.0, 0.0, 0.0, 0.00.0, 0
730769, -0.37, -0.0, -0.0, 0.0, 0.0, 0.018.17, 0
0, 0.0, 0.0, 0.0, 0.0, 0.0, 0.00.0, 0
731311, -0.41, -0.0, -0.0, 0.0, 0.0, 0.018.27, 0
731599, -0.39, -0.0, -0.0, 0.0, 0.0, 0.018.22, 0
731814, -0.37, -0.0, -0.0, 0.0, 0.0, 0.018.27, 0
0, 0.0, 0.0, 0.0, 0.0, 0.0, 0.00.0, 0
732235, -0.39, -0.0, -0.0, 0.0, 0.0, 0.018.36, 0
732449, -0.35, -0.0, -0.0, 0.0, 0.0, 0.018.31, 0
732587, -0.44, -0.0, -0.0, 0.0, 0.0, 0.018.41, 0
732786, -0.42, -0.0, -0.0, 0.0, 0.0, 0.018.41, 0
732910, -0.37, -0.0, -0.0, 0.0, 0.0, 0.018.36, 0
733126, -0.39, -0.0, -0.0, 0.0, 0.0, 0.018.31, 0
0, 0.0, 0.0, 0.0, 0.0, 0.0, 0.00.0, 0
733664, -0.33, -0.0, -0.0, 0.0, 0.0, 0.018.36, 0
733954, -0.33, -0.0, -0.0, 0.0, 0.0, 0.018.41, 0
0, 0.0, 0.0, 0.0, 0.0, 0.0, 0.00.0, 0
734421, -0.41, -0.0, -0.0, 0.0, 0.0, 0.018.45, 0
0, 0.0, 0.0, 0.0, 0.0, 0.0, 0.00.0, 0
735033, -0.34, -0.0, -0.0, 0.0, 0.0, 0.018.36, 0
0, 0.0, 0.0, 0.0, 0.0, 0.0, 0.00.0, 0
735496, -0.46, -0.0, -0.0, 0.0, 0.0, 0.018.41, 0
735782, -0.36, -0.0, -0.0, 0.0, 0.0, 0.018.36, 0
735920, -0.39, -0.0, -0.0, 0.0, 0.0, 0.018.41, 0
736117, -0.36, -0.0, -0.0, 0.0, 0.0, 0.018.36, 0
736318, -0.32, -0.0, -0.0, 0.0, 0.0, 0.018.41, 0
0, 0.0, 0.0, 0.0, 0.0, 0.0, 0.00.0, 0
736782, -0.4, -0.0, -0.0, 0.0, 0.0, 0.018.27, 0
737074, -0.35, -0.0, -0.0, 0.0, 0.0, 0.018.27, 0
0, 0.0, 0.0, 0.0, 0.0, 0.0, 0.00.0, 0
737425, -0.4, -0.0, -0.0, 0.0, 0.0, 0.018.31, 0
737714, -0.4, -0.0, -0.0, 0.0, 0.0, 0.018.17, 0
0, 0.0, 0.0, 0.0, 0.0, 0.0, 0.00.0, 0
738064, -0.31, -0.0, -0.0, 0.0, 0.0, 0.018.17, 0
738383, -0.35, -0.0, -0.0, 0.0, 0.0, 0.018.22, 0
738581, -0.33, -0.0, -0.0, 0.0, 0.0, 0.018.27, 0
0, 0.0, 0.0, 0.0, 0.0, 0.0, 0.00.0, 0
738932, -0.37, -0.0, -0.0, 0.0, 0.0, 0.018.27, 0
0, 0.0, 0.0, 0.0, 0.0, 0.0, 0.00.0, 0
739354, -0.39, -0.0, -0.0, 0.0, 0.0, 0.018.27, 0
739643, -0.42, -0.0, -0.0, 0.0, 0.0, 0.018.22, 0
0, 0.0, 0.0, 0.0, 0.0, 0.0, 0.00.0, 0
739997, -0.39, -0.0, -0.0, 0.0, 0.0, 0.018.08, 0
740200, -0.35, -0.0, -0.0, 0.0, 0.0, 0.018.27, 0
740397, -0.4, -0.0, -0.0, 0.0, 0.0, 0.018.22, 0
740537, -0.3, -0.0, -0.0, 0.0, 0.0, 0.018.08, 0
740732, -0.35, -0.0, -0.0, 0.0, 0.0, 0.018.22, 0
740933, -0.44, -0.0, -0.0, 0.0, 0.0, 0.018.17, 0
741070, -0.37, -0.0, -0.0, 0.0, 0.0, 0.018.22, 0
741265, -0.39, -0.0, -0.0, 0.0, 0.0, 0.018.12, 0
741461, -0.4, -0.0, -0.0, 0.0, 0.0, 0.018.08, 0
741602, -0.37, -0.0, -0.0, 0.0, 0.0, 0.018.08, 0
741803, -0.39, -0.0, -0.0, 0.0, 0.0, 0.018.08, 0
741926, -0.35, -0.0, -0.0, 0.0, 0.0, 0.018.03, 0
0, 0.0, 0.0, 0.0, 0.0, 0.0, 0.00.0, 0
742349, -0.33, -0.0, -0.0, 0.0, 0.0, 0.018.12, 0
742634, -0.36, -0.0, -0.0, 0.0, 0.0, 0.018.08, 0
742772, -0.44, -0.0, -0.0, 0.0, 0.0, 0.018.03, 0
742969, -0.4, -0.0, -0.0, 0.0, 0.0, 0.018.08, 0
743168, -0.38, -0.0, -0.0, 0.0, 0.0, 0.018.12, 0
743385, -0.39, -0.0, -0.0, 0.0, 0.0, 0.017.98, 0
0, 0.0, 0.0, 0.0, 0.0, 0.0, 0.00.0, 0
743851, -0.39, -0.0, -0.0, 0.0, 0.0, 0.017.98, 0
744135, -0.42, -0.0, -0.0, 0.0, 0.0, 0.018.08, 0
0, 0.0, 0.0, 0.0, 0.0, 0.0, 0.00.0, 0
744489, -0.39, -0.0, -0.0, 0.0, 0.0, 0.017.98, 0
744704, -0.34, -0.0, -0.0, 0.0, 0.0, 0.017.94, 0
0, 0.0, 0.0, 0.0, 0.0, 0.0, 0.00.0, 0
745247, -0.38, -0.0, -0.0, 0.0, 0.0, 0.017.98, 0
745539, -0.39, -0.0, -0.0, 0.0, 0.0, 0.018.08, 0
745753, -0.41, -0.0, -0.0, 0.0, 0.0, 0.018.08, 0
745890, -0.39, -0.0, -0.0, 0.0, 0.0, 0.018.03, 0
746086, -0.36, -0.0, -0.0, 0.0, 0.0, 0.018.03, 0
746284, -0.33, -0.0, -0.0, 0.0, 0.0, 0.018.08, 0
746424, -0.42, -0.0, -0.0, -0.01, -0.01, -0.0117.98, 0
746622, -0.34, -0.0, -0.0, 0.0, 0.0, 0.017.98, 0
746819, -0.43, -0.0, -0.0, 0.0, 0.0, 0.017.94, 0
746958, -0.37, -0.0, -0.0, 0.0, 0.0, 0.017.98, 0
747157, -0.39, -0.0, -0.0, 0.0, 0.0, 0.018.03, 0
747279, -0.41, -0.0, -0.0, 0.0, 0.0, 0.017.98, 0
747568, -0.38, -0.0, -0.0, 0.0, 0.0, 0.017.94, 0
0, 0.0, 0.0, 0.0, 0.0, 0.0, 0.00.0, 0
747921, -0.42, -0.0, -0.0, 0.0, 0.0, 0.018.03, 0
748211, -0.4, -0.0, -0.0, 0.0, 0.0, 0.017.98, 0
0, 0.0, 0.0, 0.0, 0.0, 0.0, 0.00.0, 0
748561, -0.39, -0.0, -0.0, 0.0, 0.0, 0.017.94, 0
748775, -0.42, -0.0, -0.0, 0.0, 0.0, 0.017.98, 0
748990, -0.42, -0.0, -0.0, 0.0, 0.0, 0.017.94, 0
749278, -0.38, -0.0, -0.0, 0.0, 0.0, 0.017.84, 0
0, 0.0, 0.0, 0.0, 0.0, 0.0, 0.00.0, 0
749817, -0.39, -0.0, -0.0, 0.0, 0.0, 0.017.98, 0
749954, -0.41, -0.0, -0.0, 0.0, 0.0, 0.017.98, 0
750151, -0.39, -0.0, -0.0, 0.0, 0.0, 0.017.89, 0
750348, -0.37, -0.0, -0.0, 0.0, 0.0, 0.017.84, 0
0, 0.0, 0.0, 0.0, 0.0, 0.0, 0.00.0, 0
750816, -0.39, -0.0, -0.0, 0.0, 0.0, 0.017.89, 0
751101, -0.37, -0.0, -0.0, 0.0, 0.0, 0.017.89, 0
751319, -0.43, -0.0, -0.0, 0.0, 0.0, 0.017.89, 0
0, 0.0, 0.0, 0.0, 0.0, 0.0, 0.00.0, 0
751856, -0.4, -0.0, -0.0, 0.0, 0.0, 0.017.84, 0
0, 0.0, 0.0, 0.0, 0.0, 0.0, 0.00.0, 0
752209, -0.4, -0.0, -0.0, 0.0, 0.0, 0.017.84, 0
752426, -0.37, -0.0, -0.0, 0.0, 0.0, 0.017.89, 0
752644, -0.38, -0.0, -0.0, 0.0, 0.0, 0.017.84, 0
752856, -0.4, -0.0, -0.0, 0.0, 0.0, 0.017.8, 0
753052, -0.43, -0.0, -0.0, 0.0, 0.0, 0.017.84, 0
753245, -0.39, -0.0, -0.0, 0.0, 0.0, 0.017.8, 0
0, 0.0, 0.0, 0.0, 0.0, 0.0, 0.00.0, 0
753598, -0.31, -0.0, -0.0, 0.0, 0.0, 0.017.8, 0
753887, -0.4, -0.0, -0.0, 0.0, 0.0, 0.017.84, 0
0, 0.0, 0.0, 0.0, 0.0, 0.0, 0.00.0, 0
754358, -0.4, -0.0, -0.0, 0.0, 0.0, 0.017.84, 0
754645, -0.33, -0.0, -0.0, 0.0, 0.0, 0.017.84, 0
0, 0.0, 0.0, 0.0, 0.0, 0.0, 0.00.0, 0
755112, -0.36, -0.0, -0.0, 0.0, 0.0, 0.017.84, 0
755399, -0.39, -0.0, -0.0, 0.0, 0.0, 0.017.7, 0
755537, -0.36, -0.0, -0.0, 0.0, 0.0, 0.017.7, 0
755733, -0.4, -0.0, -0.0, 0.0, 0.0, 0.017.84, 0
0, 0.0, 0.0, 0.0, 0.0, 0.0, 0.00.0, 0
756278, -0.38, -0.0, -0.0, 0.0, 0.0, 0.017.75, 0
756416, -0.34, -0.0, -0.0, 0.0, 0.0, 0.017.7, 0
756614, -0.35, -0.0, -0.0, 0.0, 0.0, 0.017.75, 0
756812, -0.41, -0.0, -0.0, 0.0, 0.0, 0.017.7, 0
757027, -0.32, -0.0, -0.0, 0.0, 0.0, 0.017.75, 0
0, 0.0, 0.0, 0.0, 0.0, 0.0, 0.00.0, 0
757378, -0.3, -0.0, -0.0, 0.0, 0.0, 0.017.65, 0
757667, -0.41, -0.0, -0.0, 0.0, 0.0, 0.017.7, 0
757804, -0.39, -0.0, -0.0, 0.0, 0.0, 0.017.65, 0
758005, -0.36, -0.0, -0.0, 0.0, 0.0, 0.017.7, 0
758128, -0.39, -0.0, -0.0, 0.0, 0.0, 0.017.65, 0
758418, -0.38, -0.0, -0.0, 0.0, 0.0, 0.017.61, 0
0, 0.0, 0.0, 0.0, 0.0, 0.0, 0.00.0, 0
758769, -0.39, -0.0, -0.0, 0.0, 0.0, 0.017.7, 0
759057, -0.4, -0.0, -0.0, 0.0, 0.0, 0.017.65, 0
0, 0.0, 0.0, 0.0, 0.0, 0.0, 0.00.0, 0
759408, -0.36, -0.0, -0.0, 0.0, 0.0, 0.017.7, 0
759626, -0.4, -0.0, -0.0, 0.0, 0.0, 0.017.65, 0
759912, -0.39, -0.0, -0.0, 0.0, 0.0, 0.017.65, 0
760052, -0.4, -0.0, -0.0, 0.0, 0.0, 0.017.56, 0
760248, -0.37, -0.0, -0.0, 0.0, 0.0, 0.017.75, 0
760446, -0.37, -0.0, -0.0, 0.0, 0.0, 0.017.7, 0
0, 0.0, 0.0, 0.0, 0.0, 0.0, 0.00.0, 0
760798, -0.4, -0.0, -0.0, 0.0, 0.0, 0.017.65, 0
761084, -0.32, -0.0, -0.0, 0.0, 0.0, 0.017.65, 0
761221, -0.39, -0.0, -0.0, 0.0, 0.0, 0.017.75, 0
761422, -0.35, -0.0, -0.0, 0.0, 0.0, 0.017.65, 0
761618, -0.37, -0.0, -0.0, 0.0, 0.0, 0.017.7, 0
761756, -0.34, -0.0, -0.0, 0.0, 0.0, 0.017.65, 0
761955, -0.43, -0.0, -0.0, 0.0, 0.0, 0.017.65, 0
762151, -0.36, -0.0, -0.0, 0.0, 0.0, 0.017.56, 0
0, 0.0, 0.0, 0.0, 0.0, 0.0, 0.00.0, 0
762503, -0.34, -0.0, -0.0, 0.0, 0.0, 0.017.65, 0
762717, -0.4, -0.0, -0.0, 0.0, 0.0, 0.017.61, 0
762929, -0.38, -0.0, -0.0, 0.0, 0.0, 0.017.65, 0
0, 0.0, 0.0, 0.0, 0.0, 0.0, 0.00.0, 0
763548, -0.39, -0.0, -0.0, 0.0, 0.0, 0.017.7, 0
763686, -0.39, -0.0, -0.0, 0.0, 0.0, 0.017.65, 0
763880, -0.37, -0.0, -0.0, 0.0, 0.0, 0.017.61, 0
764079, -0.39, -0.0, -0.0, 0.0, 0.0, 0.017.65, 0
764217, -0.36, -0.0, -0.0, 0.0, 0.0, 0.017.61, 0
764415, -0.34, -0.0, -0.0, 0.0, 0.0, 0.017.56, 0
764613, -0.38, -0.0, -0.0, 0.0, 0.0, 0.017.65, 0
764647, -0.36, -0.0, -0.0, 0.0, 0.0, 0.017.61, 0
0, 0.0, 0.0, 0.0, 0.0, 0.0, 0.00.0, 0
765297, -0.37, -0.0, -0.0, 0.0, 0.0, 0.017.51, 0
765583, -0.36, -0.0, -0.0, 0.0, 0.0, 0.017.61, 0
765798, -0.37, -0.0, -0.0, 0.0, 0.0, 0.017.47, 0
0, 0.0, 0.0, 0.0, 0.0, 0.0, 0.00.0, 0
766263, -0.35, -0.0, -0.0, 0.0, 0.0, 0.017.56, 0
766475, -0.35, -0.0, -0.0, 0.0, 0.0, 0.017.56, 0
766673, -0.42, -0.0, -0.0, 0.0, 0.0, 0.017.61, 0
766798, -0.43, -0.0, -0.0, 0.0, 0.0, 0.017.65, 0
767011, -0.38, -0.0, -0.0, 0.0, 0.0, 0.017.61, 0
767207, -0.32, -0.0, -0.0, 0.0, 0.0, 0.017.56, 0
767334, -0.38, -0.0, -0.0, 0.0, 0.0, 0.017.51, 0
767621, -0.44, -0.0, -0.0, 0.0, 0.0, 0.017.56, 0
767836, -0.36, -0.0, -0.0, 0.0, 0.0, 0.017.61, 0
767973, -0.35, -0.0, -0.0, 0.0, 0.0, 0.017.47, 0
768173, -0.36, -0.0, -0.0, 0.0, 0.0, 0.017.7, 0
768294, -0.42, -0.0, -0.0, 0.0, 0.0, 0.017.56, 0
768510, -0.34, -0.0, -0.0, 0.0, 0.0, 0.017.51, 0
768730, -0.38, -0.0, -0.0, 0.0, 0.0, 0.017.65, 0
769015, -0.37, -0.0, -0.0, 0.0, 0.0, 0.017.51, 0
0, 0.0, 0.0, 0.0, 0.0, 0.0, 0.00.0, 0
769552, -0.39, -0.0, -0.0, 0.0, 0.0, 0.017.56, 0
769690, -0.41, -0.0, -0.0, 0.0, 0.0, 0.017.61, 0
769888, -0.43, -0.0, -0.0, 0.0, 0.0, 0.017.56, 0
770084, -0.37, -0.0, -0.0, 0.0, 0.0, 0.017.65, 0
770227, -0.34, -0.0, -0.0, 0.0, 0.0, 0.017.56, 0
770447, -0.36, -0.0, -0.0, 0.0, 0.0, 0.017.61, 0
770733, -0.38, -0.0, -0.0, 0.0, 0.0, 0.017.47, 0
770873, -0.4, -0.0, -0.0, 0.0, 0.0, 0.017.61, 0
771067, -0.39, -0.0, -0.0, 0.0, 0.0, 0.017.56, 0
771268, -0.39, -0.0, -0.0, 0.0, 0.0, 0.017.61, 0
771406, -0.41, -0.0, -0.0, 0.0, 0.0, 0.017.56, 0
771605, -0.38, -0.0, -0.0, 0.0, 0.0, 0.017.56, 0
771801, -0.34, -0.0, -0.0, -0.01, -0.01, -0.0117.61, 0
771941, -0.4, -0.0, -0.0, 0.0, 0.0, 0.017.56, 0
772140, -0.44, -0.0, -0.0, 0.0, 0.0, 0.017.51, 0
772264, -0.38, -0.0, -0.0, 0.0, 0.0, 0.017.56, 0
772477, -0.35, -0.0, -0.0, 0.0, 0.0, 0.017.61, 0
772671, -0.39, -0.0, -0.0, 0.0, 0.0, 0.017.56, 0
772871, -0.38, -0.0, -0.0, 0.0, 0.0, 0.017.65, 0
773008, -0.42, -0.0, -0.0, 0.0, 0.0, 0.017.56, 0
773207, -0.35, -0.0, -0.0, 0.0, 0.0, 0.017.65, 0
773404, -0.33, -0.0, -0.0, 0.0, 0.0, 0.017.51, 0
0, 0.0, 0.0, 0.0, 0.0, 0.0, 0.00.0, 0
773757, -0.38, -0.0, -0.0, 0.0, 0.0, 0.017.56, 0
774045, -0.35, -0.0, -0.0, 0.0, 0.0, 0.017.65, 0
0, 0.0, 0.0, 0.0, 0.0, 0.0, 0.00.0, 0
774507, -0.36, -0.0, -0.0, 0.0, 0.0, 0.017.56, 0
774798, -0.35, -0.0, -0.0, 0.0, 0.0, 0.017.56, 0
0, 0.0, 0.0, 0.0, 0.0, 0.0, 0.00.0, 0
775262, -0.39, -0.0, -0.0, 0.0, 0.0, 0.017.51, 0
775473, -0.36, -0.0, -0.0, 0.0, 0.0, 0.017.61, 0
775674, -0.36, -0.0, -0.0, 0.0, 0.0, 0.017.51, 0
775870, -0.38, -0.0, -0.0, 0.0, 0.0, 0.017.65, 0
0, 0.0, 0.0, 0.0, 0.0, 0.0, 0.00.0, 0
776219, -0.36, -0.0, -0.0, 0.0, 0.0, 0.017.56, 0
776508, -0.35, -0.0, -0.0, 0.0, 0.0, 0.017.61, 0
0, 0.0, 0.0, 0.0, 0.0, 0.0, 0.00.0, 0
776859, -0.38, -0.0, -0.0, 0.0, 0.0, 0.017.51, 0
777145, -0.35, -0.0, -0.0, 0.0, 0.0, 0.017.56, 0
777284, -0.39, -0.0, -0.0, 0.0, 0.0, 0.017.47, 0
777485, -0.36, -0.0, -0.0, 0.0, 0.0, 0.017.65, 0
777607, -0.43, -0.0, -0.0, 0.0, 0.0, 0.017.61, 0
777897, -0.39, -0.0, -0.0, 0.0, 0.0, 0.017.56, 0
778137, -0.36, -0.0, -0.0, 0.0, 0.0, 0.017.61, 0
778285, -0.31, -0.0, -0.0, 0.0, 0.0, 0.017.61, 0
778481, -0.35, -0.0, -0.0, 0.0, 0.0, 0.017.56, 0
778683, -0.4, -0.0, -0.0, 0.0, 0.0, 0.017.56, 0
778819, -0.39, -0.0, -0.0, 0.0, 0.0, 0.017.56, 0
779019, -0.39, -0.0, -0.0, 0.0, 0.0, 0.017.56, 0
779144, -0.39, -0.0, -0.0, 0.0, 0.0, 0.017.51, 0
779362, -0.43, -0.0, -0.0, 0.0, 0.0, 0.017.56, 0
779648, -0.39, -0.0, -0.0, 0.0, 0.0, 0.017.61, 0
779785, -0.36, -0.0, -0.0, 0.0, 0.0, 0.017.51, 0
779983, -0.39, -0.0, -0.0, 0.0, 0.0, 0.017.51, 0
780181, -0.39, -0.0, -0.0, 0.0, 0.0, 0.017.56, 0
0, 0.0, 0.0, 0.0, 0.0, 0.0, 0.00.0, 0
780535, -0.41, -0.0, -0.0, 0.0, 0.0, 0.017.56, 0
780824, -0.43, -0.0, -0.0, 0.0, 0.0, 0.017.51, 0
0, 0.0, 0.0, 0.0, 0.0, 0.0, 0.00.0, 0
781178, -0.38, -0.0, -0.0, 0.0, 0.0, 0.017.56, 0
781467, -0.37, -0.0, -0.0, 0.0, 0.0, 0.017.47, 0
0, 0.0, 0.0, 0.0, 0.0, 0.0, 0.00.0, 0
781819, -0.35, -0.0, -0.0, 0.0, 0.0, 0.017.51, 0
782033, -0.35, -0.0, -0.0, 0.0, 0.0, 0.017.47, 0
782322, -0.42, -0.0, -0.0, 0.0, 0.0, 0.017.56, 0
782461, -0.4, -0.0, -0.0, 0.0, 0.0, 0.017.56, 0
782659, -0.4, -0.0, -0.0, 0.0, 0.0, 0.017.47, 0
782781, -0.38, -0.0, -0.0, 0.0, 0.0, 0.017.47, 0
0, 0.0, 0.0, 0.0, 0.0, 0.0, 0.00.0, 0
783321, -0.37, -0.0, -0.0, 0.0, 0.0, 0.017.51, 0
783611, -0.39, -0.0, -0.0, 0.0, 0.0, 0.017.51, 0
0, 0.0, 0.0, 0.0, 0.0, 0.0, 0.00.0, 0
783963, -0.35, -0.0, -0.0, 0.0, 0.0, 0.017.56, 0
784249, -0.33, -0.0, -0.0, 0.0, 0.0, 0.017.51, 0
0, 0.0, 0.0, 0.0, 0.0, 0.0, 0.00.0, 0
784717, -0.38, -0.0, -0.0, 0.0, 0.0, 0.017.51, 0
785003, -0.33, -0.0, -0.0, 0.0, 0.0, 0.017.51, 0
0, 0.0, 0.0, 0.0, 0.0, 0.0, 0.00.0, 0
785472, -0.39, -0.0, -0.0, 0.0, 0.0, 0.017.56, 0
785759, -0.38, -0.0, -0.0, 0.0, 0.0, 0.017.47, 0
785975, -0.39, -0.0, -0.0, 0.0, 0.0, 0.017.51, 0
0, 0.0, 0.0, 0.0, 0.0, 0.0, 0.00.0, 0
786327, -0.35, -0.0, -0.0, 0.0, 0.0, 0.017.47, 0
786545, -0.42, -0.0, -0.0, 0.0, 0.0, 0.017.51, 0
786756, -0.39, -0.0, -0.0, 0.0, 0.0, 0.017.56, 0
787046, -0.42, -0.0, -0.0, 0.0, 0.0, 0.017.51, 0
0, 0.0, 0.0, 0.0, 0.0, 0.0, 0.00.0, 0
787511, -0.4, -0.0, -0.0, 0.0, 0.0, 0.017.51, 0
787799, -0.41, -0.0, -0.0, 0.0, 0.0, 0.017.42, 0
788013, -0.39, -0.0, -0.0, 0.0, 0.0, 0.017.47, 0
0, 0.0, 0.0, 0.0, 0.0, 0.0, 0.00.0, 0
788553, -0.42, -0.0, -0.0, 0.0, 0.0, 0.017.56, 0
788767, -0.41, -0.0, -0.0, 0.0, 0.0, 0.017.47, 0
788906, -0.41, -0.0, -0.0, 0.0, 0.0, 0.017.42, 0
789097, -0.35, -0.0, -0.0, 0.0, 0.0, 0.017.51, 0
789300, -0.31, -0.0, -0.0, 0.0, 0.0, 0.017.42, 0
789437, -0.34, -0.0, -0.0, 0.0, 0.0, 0.017.47, 0
789635, -0.39, -0.0, -0.0, 0.0, 0.0, 0.017.51, 0
789832, -0.4, -0.0, -0.0, 0.0, 0.0, 0.017.51, 0
0, 0.0, 0.0, 0.0, 0.0, 0.0, 0.00.0, 0
790299, -0.43, -0.0, -0.0, 0.0, 0.0, 0.017.37, 0
790511, -0.4, -0.0, -0.0, 0.0, 0.0, 0.017.33, 0
790708, -0.4, -0.0, -0.0, 0.0, 0.0, 0.017.37, 0
790906, -0.39, -0.0, -0.0, 0.0, 0.0, 0.017.33, 0
791046, -0.37, -0.0, -0.0, 0.0, 0.0, 0.017.37, 0
791155, -0.39, -0.0, -0.0, 0.0, 0.0, 0.017.42, 0
791430, -0.41, -0.0, -0.0, 0.0, 0.0, 0.017.42, 0
791570, -0.42, -0.0, -0.0, 0.0, 0.0, 0.017.42, 0
0, 0.0, 0.0, 0.0, 0.0, 0.0, 0.00.0, 0
791980, -0.37, -0.0, -0.0, 0.0, 0.0, 0.017.33, 0
792100, -0.4, -0.0, -0.0, 0.0, 0.0, 0.017.42, 0
792304, -0.36, -0.0, -0.0, 0.0, 0.0, 0.017.37, 0
792501, -0.37, -0.0, -0.0, 0.0, 0.0, 0.017.42, 0
792640, -0.4, -0.0, -0.0, 0.0, 0.0, 0.017.37, 0
792834, -0.39, -0.0, -0.0, 0.0, 0.0, 0.017.33, 0
793035, -0.39, -0.0, -0.0, 0.0, 0.0, 0.017.28, 0
0, 0.0, 0.0, 0.0, 0.0, 0.0, 0.00.0, 0
793386, -0.41, -0.0, -0.0, 0.0, 0.0, 0.017.37, 0
793604, -0.4, -0.0, -0.0, 0.0, 0.0, 0.017.23, 0
793892, -0.43, -0.0, -0.0, 0.0, 0.0, 0.017.37, 0
794105, -0.35, -0.0, -0.0, 0.0, 0.0, 0.017.33, 0
0, 0.0, 0.0, 0.0, 0.0, 0.0, 0.00.0, 0
794460, -0.32, -0.0, -0.0, 0.0, 0.0, 0.017.37, 0
794748, -0.4, -0.0, -0.0, 0.0, 0.0, 0.017.37, 0
794884, -0.38, -0.0, -0.0, 0.0, 0.0, 0.017.37, 0
795082, -0.39, -0.0, -0.0, 0.0, 0.0, 0.017.33, 0
795207, -0.38, -0.0, -0.0, 0.0, 0.0, 0.017.37, 0
795427, -0.39, -0.0, -0.0, 0.0, 0.0, 0.017.33, 0
795642, -0.42, -0.0, -0.0, 0.0, 0.0, 0.017.37, 0
795929, -0.34, -0.0, -0.0, 0.0, 0.0, 0.017.42, 0
796138, -0.4, -0.0, -0.0, 0.0, 0.0, 0.017.37, 0
0, 0.0, 0.0, 0.0, 0.0, 0.0, 0.00.0, 0
796494, -0.38, -0.0, -0.0, 0.0, 0.0, 0.017.37, 0
796709, -0.39, -0.0, -0.0, 0.0, 0.0, 0.017.42, 0
796921, -0.34, -0.0, -0.0, 0.0, 0.0, 0.017.37, 0
797142, -0.39, -0.0, -0.0, 0.0, 0.0, 0.017.37, 0
797430, -0.35, -0.0, -0.0, 0.0, 0.0, 0.017.37, 0
797566, -0.4, -0.0, -0.0, 0.0, 0.0, 0.017.37, 0
797763, -0.38, -0.0, -0.0, 0.0, 0.0, 0.017.47, 0
797960, -0.38, -0.0, -0.0, 0.0, 0.0, 0.017.42, 0
798096, -0.38, -0.0, -0.0, 0.0, 0.0, 0.017.42, 0
798292, -0.38, -0.0, -0.0, 0.0, 0.0, 0.017.42, 0
798493, -0.38, -0.0, -0.0, 0.0, 0.0, 0.017.47, 0
798632, -0.36, -0.0, -0.0, 0.0, 0.0, 0.017.42, 0
798828, -0.41, -0.0, -0.0, 0.0, 0.0, 0.017.47, 0
799028, -0.36, -0.0, -0.0, 0.0, 0.0, 0.017.37, 0
0, 0.0, 0.0, 0.0, 0.0, 0.0, 0.00.0, 0
799564, -0.39, -0.0, -0.0, 0.0, 0.0, 0.017.42, 0
799701, -0.4, -0.0, -0.0, 0.0, 0.0, 0.017.42, 0
799899, -0.34, -0.0, -0.0, 0.0, 0.0, 0.017.51, 0
800099, -0.39, -0.0, -0.0, 0.0, 0.0, 0.017.47, 0
800313, -0.33, -0.0, -0.0, 0.0, 0.0, 0.017.42, 0
0, 0.0, 0.0, 0.0, 0.0, 0.0, 0.00.0, 0
0, 0.0, 0.0, 0.0, 0.0, 0.0, 0.00.0, 0
800967, -0.39, -0.0, -0.0, 0.0, 0.0, 0.017.42, 0
801101, -0.39, -0.0, -0.0, 0.0, 0.0, 0.017.42, 0
0, 0.0, 0.0, 0.0, 0.0, 0.0, 0.00.0, 0
801516, -0.37, -0.0, -0.0, 0.0, 0.0, 0.017.42, 0
801639, -0.36, -0.0, -0.0, 0.0, 0.0, 0.017.51, 0
801852, -0.32, -0.0, -0.0, 0.0, 0.0, 0.017.42, 0
802064, -0.37, -0.0, -0.0, 0.0, 0.0, 0.017.51, 0
802261, -0.35, -0.0, -0.0, 0.0, 0.0, 0.017.42, 0
802461, -0.38, -0.0, -0.0, 0.0, 0.0, 0.017.51, 0
0, 0.0, 0.0, 0.0, 0.0, 0.0, 0.00.0, 0
802812, -0.34, -0.0, -0.0, 0.0, 0.0, 0.017.42, 0
803098, -0.43, -0.0, -0.0, 0.0, 0.0, 0.017.47, 0
803239, -0.34, -0.0, -0.0, 0.0, 0.0, 0.017.51, 0
803434, -0.4, -0.0, -0.0, 0.0, 0.0, 0.017.42, 0
803632, -0.4, -0.0, -0.0, 0.0, 0.0, 0.017.56, 0
803769, -0.37, -0.0, -0.0, 0.0, 0.0, 0.017.47, 0
803967, -0.38, -0.0, -0.0, 0.0, 0.0, 0.017.47, 0
804165, -0.37, -0.0, -0.0, 0.0, 0.0, 0.017.42, 0
0, 0.0, 0.0, 0.0, 0.0, 0.0, 0.00.0, 0
804634, -0.37, -0.0, -0.0, 0.0, 0.0, 0.017.42, 0
804851, -0.39, -0.0, -0.0, 0.0, 0.0, 0.017.42, 0
805135, -0.37, -0.0, -0.0, 0.0, 0.0, 0.017.47, 0
805353, -0.36, -0.0, -0.0, 0.0, 0.0, 0.017.47, 0
0, 0.0, 0.0, 0.0, 0.0, 0.0, 0.00.0, 0
805817, -0.45, -0.0, -0.0, 0.0, 0.0, 0.017.47, 0
806028, -0.37, -0.0, -0.0, 0.0, 0.0, 0.017.51, 0
806235, -0.35, -0.0, -0.0, 0.0, 0.0, 0.017.37, 0
806357, -0.42, -0.0, -0.0, 0.0, 0.0, 0.017.42, 0
806571, -0.37, -0.0, -0.0, 0.0, 0.0, 0.017.56, 0
806857, -0.33, -0.0, -0.0, 0.0, 0.0, 0.017.51, 0
807072, -0.33, -0.0, -0.0, 0.0, 0.0, 0.017.47, 0
807212, -0.35, -0.0, -0.0, 0.0, 0.0, 0.017.61, 0
807409, -0.34, -0.0, -0.0, 0.0, 0.0, 0.017.37, 0
807609, -0.39, -0.0, -0.0, 0.0, 0.0, 0.017.56, 0
807746, -0.42, -0.0, -0.0, 0.0, 0.0, 0.017.56, 0
807947, -0.33, -0.0, -0.0, 0.0, 0.0, 0.017.56, 0
808140, -0.34, -0.0, -0.0, 0.0, 0.0, 0.017.51, 0
0, 0.0, 0.0, 0.0, 0.0, 0.0, 0.00.0, 0
808493, -0.43, -0.0, -0.0, 0.0, 0.0, 0.017.56, 0
808782, -0.37, -0.0, -0.0, 0.0, 0.0, 0.017.47, 0
808918, -0.42, -0.0, -0.0, 0.0, 0.0, 0.017.47, 0
809120, -0.35, -0.0, -0.0, 0.0, 0.0, 0.017.47, 0
809242, -0.37, -0.0, -0.0, 0.0, 0.0, 0.017.42, 0
809533, -0.39, -0.0, -0.0, 0.0, 0.0, 0.017.47, 0
0, 0.0, 0.0, 0.0, 0.0, 0.0, 0.00.0, 0
809999, -0.39, -0.0, -0.0, 0.0, 0.0, 0.017.47, 0
810210, -0.34, -0.0, -0.0, 0.0, 0.0, 0.017.47, 0
810408, -0.33, -0.0, -0.0, 0.0, 0.0, 0.017.51, 0
810604, -0.34, -0.0, -0.0, 0.0, 0.0, 0.017.56, 0
0, 0.0, 0.0, 0.0, 0.0, 0.0, 0.00.0, 0
810955, -0.31, -0.0, -0.0, 0.0, 0.0, 0.017.47, 0
811244, -0.43, -0.0, -0.0, 0.0, 0.0, 0.017.61, 0
0, 0.0, 0.0, 0.0, 0.0, 0.0, 0.00.0, 0
811782, -0.38, -0.0, -0.0, 0.0, 0.0, 0.017.56, 0
811918, -0.39, -0.0, -0.0, 0.0, 0.0, 0.017.51, 0
812116, -0.4, -0.0, -0.0, 0.0, 0.0, 0.017.56, 0
812313, -0.36, -0.0, -0.0, 0.0, 0.0, 0.017.42, 0
0, 0.0, 0.0, 0.0, 0.0, 0.0, 0.00.0, 0
812665, -0.39, -0.0, -0.0, 0.0, 0.0, 0.017.51, 0
812953, -0.37, -0.0, -0.0, 0.0, 0.0, 0.017.56, 0
0, 0.0, 0.0, 0.0, 0.0, 0.0, 0.00.0, 0
813418, -0.4, -0.0, -0.0, 0.0, 0.0, 0.017.51, 0
813709, -0.39, -0.0, -0.0, 0.0, 0.0, 0.017.56, 0
0, 0.0, 0.0, 0.0, 0.0, 0.0, 0.00.0, 0
814062, -0.36, -0.0, -0.0, 0.0, 0.0, 0.017.56, 0
814351, -0.35, -0.0, -0.0, 0.0, 0.0, 0.017.51, 0
814490, -0.4, -0.0, -0.0, 0.0, 0.0, 0.017.47, 0
814684, -0.35, -0.0, -0.0, 0.0, 0.0, 0.017.51, 0
814886, -0.42, -0.0, -0.0, 0.0, 0.0, 0.017.51, 0
815023, -0.38, -0.0, -0.0, 0.0, 0.0, 0.017.51, 0
815223, -0.39, -0.0, -0.0, 0.0, 0.0, 0.017.47, 0
815421, -0.31, -0.0, -0.0, 0.0, 0.0, 0.017.47, 0
0, 0.0, 0.0, 0.0, 0.0, 0.0, 0.00.0, 0
815772, -0.4, -0.0, -0.0, 0.0, 0.0, 0.017.51, 0
816060, -0.35, -0.0, -0.0, 0.0, 0.0, 0.017.56, 0
0, 0.0, 0.0, 0.0, 0.0, 0.0, 0.00.0, 0
816411, -0.39, -0.0, -0.0, 0.0, 0.0, 0.017.47, 0
816622, -0.35, -0.0, -0.0, 0.0, 0.0, 0.017.51, 0
816837, -0.36, -0.0, -0.0, 0.0, 0.0, 0.017.47, 0
817122, -0.37, -0.0, -0.0, 0.0, 0.0, 0.017.42, 0
817263, -0.39, -0.0, -0.0, 0.0, 0.0, 0.017.51, 0
817458, -0.39, -0.0, -0.0, 0.0, 0.0, 0.017.42, 0
817658, -0.38, -0.0, -0.0, 0.0, 0.0, 0.017.47, 0
0, 0.0, 0.0, 0.0, 0.0, 0.0, 0.00.0, 0
818117, -0.38, -0.0, -0.0, 0.0, 0.0, 0.017.47, 0
818239, -0.43, -0.0, -0.0, 0.0, 0.0, 0.017.37, 0
818452, -0.38, -0.0, -0.0, 0.0, 0.0, 0.017.42, 0
818741, -0.45, -0.0, -0.0, 0.0, 0.0, 0.017.47, 0
818880, -0.35, -0.0, -0.0, 0.0, 0.0, 0.017.51, 0
819074, -0.36, -0.0, -0.0, 0.0, 0.0, 0.017.37, 0
819274, -0.41, -0.0, -0.0, 0.0, 0.0, 0.017.56, 0
819412, -0.37, -0.0, -0.0, 0.0, 0.0, 0.017.47, 0
819609, -0.3, -0.0, -0.0, 0.0, 0.0, 0.017.47, 0
819809, -0.35, -0.0, -0.0, 0.0, 0.0, 0.017.51, 0
819945, -0.39, -0.0, -0.0, 0.0, 0.0, 0.017.56, 0
820157, -0.34, -0.0, -0.0, 0.0, 0.0, 0.017.42, 0
820371, -0.39, -0.0, -0.0, 0.0, 0.0, 0.017.47, 0
820659, -0.39, -0.0, -0.0, 0.0, 0.0, 0.017.51, 0
0, 0.0, 0.0, 0.0, 0.0, 0.0, 0.00.0, 0
821010, -0.35, -0.0, -0.0, 0.0, 0.0, 0.017.47, 0
821228, -0.35, -0.0, -0.0, 0.0, 0.0, 0.017.51, 0
821514, -0.32, -0.0, -0.0, 0.0, 0.0, 0.017.47, 0
821654, -0.34, -0.0, -0.0, 0.0, 0.0, 0.017.51, 0
821852, -0.36, -0.0, -0.0, 0.0, 0.0, 0.017.47, 0
821974, -0.34, -0.0, -0.0, 0.0, 0.0, 0.017.51, 0
0, 0.0, 0.0, 0.0, 0.0, 0.0, 0.00.0, 0
822513, -0.37, -0.0, -0.0, 0.0, 0.0, 0.017.51, 0
822803, -0.34, -0.0, -0.0, 0.0, 0.0, 0.017.47, 0
822935, -0.38, -0.0, -0.0, 0.0, 0.0, 0.017.47, 0
823148, -0.33, -0.0, -0.0, 0.0, 0.0, 0.017.51, 0
823363, -0.39, -0.0, -0.0, 0.0, 0.0, 0.017.56, 0
823650, -0.41, -0.0, -0.0, 0.0, 0.0, 0.017.51, 0
823790, -0.35, -0.0, -0.0, 0.0, 0.0, 0.017.47, 0
824008, -0.36, -0.0, -0.0, 0.0, 0.0, 0.017.42, 0
824300, -0.36, -0.0, -0.0, 0.0, 0.0, 0.017.47, 0
824439, -0.34, -0.0, -0.0, 0.0, 0.0, 0.017.42, 0
0, 0.0, 0.0, 0.0, 0.0, 0.0, 0.00.0, 0
824834, -0.42, -0.0, -0.0, 0.0, 0.0, 0.017.42, 0
824971, -0.35, -0.0, -0.0, 0.0, 0.0, 0.017.47, 0
825260, -0.35, -0.0, -0.0, 0.0, 0.0, 0.017.51, 0
0, 0.0, 0.0, 0.0, 0.0, 0.0, 0.00.0, 0
825612, -0.34, -0.0, -0.0, 0.0, 0.0, 0.017.42, 0
825900, -0.39, -0.0, -0.0, 0.0, 0.0, 0.017.56, 0
826038, -0.39, -0.0, -0.0, 0.0, 0.0, 0.017.51, 0
826232, -0.34, -0.0, -0.0, 0.0, 0.0, 0.017.47, 0
826434, -0.31, -0.0, -0.0, 0.0, 0.0, 0.017.51, 0
826570, -0.31, -0.0, -0.0, 0.0, 0.0, 0.017.47, 0
826769, -0.38, -0.0, -0.0, 0.0, 0.0, 0.017.56, 0
826966, -0.38, -0.0, -0.0, 0.0, 0.0, 0.017.56, 0
0, 0.0, 0.0, 0.0, 0.0, 0.0, 0.00.0, 0
827435, -0.41, -0.0, -0.0, 0.0, 0.0, 0.017.47, 0
827721, -0.37, -0.0, -0.0, 0.0, 0.0, 0.017.51, 0
0, 0.0, 0.0, 0.0, 0.0, 0.0, 0.00.0, 0
828073, -0.36, -0.0, -0.0, 0.0, 0.0, 0.017.47, 0
828361, -0.37, -0.0, -0.0, 0.0, 0.0, 0.017.51, 0
0, 0.0, 0.0, 0.0, 0.0, 0.0, 0.00.0, 0
828709, -0.39, -0.0, -0.0, 0.0, 0.0, 0.017.61, 0
828997, -0.32, -0.0, -0.0, 0.0, 0.0, 0.017.56, 0
0, 0.0, 0.0, 0.0, 0.0, 0.0, 0.00.0, 0
829349, -0.32, -0.0, -0.0, 0.0, 0.0, 0.017.51, 0
829563, -0.36, -0.0, -0.0, 0.0, 0.0, 0.017.56, 0
829851, -0.36, -0.0, -0.0, 0.0, 0.0, 0.017.61, 0
830065, -0.36, -0.0, -0.0, 0.0, 0.0, 0.017.51, 0
0, 0.0, 0.0, 0.0, 0.0, 0.0, 0.00.0, 0
830418, -0.39, -0.0, -0.0, 0.0, 0.0, 0.017.56, 0
830707, -0.39, -0.0, -0.0, 0.0, 0.0, 0.017.56, 0
830844, -0.32, -0.0, -0.0, 0.0, 0.0, 0.017.51, 0
831154, -0.36, -0.0, -0.0, 0.0, 0.0, 0.017.61, 0
831350, -0.38, -0.0, -0.0, 0.0, 0.0, 0.017.56, 0
831490, -0.38, -0.0, -0.0, 0.0, 0.0, 0.017.61, 0
831684, -0.37, -0.0, -0.0, 0.0, 0.0, 0.017.56, 0
831886, -0.32, -0.0, -0.0, 0.0, 0.0, 0.017.56, 0
832024, -0.37, -0.0, -0.0, 0.0, 0.0, 0.017.56, 0
832221, -0.4, -0.0, -0.0, 0.0, 0.0, 0.017.61, 0
832422, -0.38, -0.0, -0.0, 0.0, 0.0, 0.017.51, 0
832559, -0.32, -0.0, -0.0, 0.0, 0.0, 0.017.51, 0
832759, -0.4, -0.0, -0.0, 0.0, 0.0, 0.017.61, 0
832883, -0.4, -0.0, -0.0, 0.0, 0.0, 0.017.56, 0
0, 0.0, 0.0, 0.0, 0.0, 0.0, 0.00.0, 0
833423, -0.45, -0.0, -0.0, 0.0, 0.0, 0.017.51, 0
833710, -0.37, -0.0, -0.0, 0.0, 0.0, 0.017.56, 0
0, 0.0, 0.0, 0.0, 0.0, 0.0, 0.00.0, 0
834131, -0.35, -0.0, -0.0, 0.0, 0.0, 0.017.56, 0
834348, -0.37, -0.0, -0.0, 0.0, 0.0, 0.017.61, 0
0, 0.0, 0.0, 0.0, 0.0, 0.0, 0.00.0, 0
834815, -0.39, -0.0, -0.0, 0.0, 0.0, 0.017.56, 0
835100, -0.39, -0.0, -0.0, 0.0, 0.0, 0.017.51, 0
835239, -0.39, -0.0, -0.0, 0.0, 0.0, 0.017.56, 0
0, 0.0, 0.0, 0.0, 0.0, 0.0, 0.00.0, 0
835647, -0.38, -0.0, -0.0, 0.0, 0.0, 0.017.47, 0
835770, -0.38, -0.0, -0.0, 0.0, 0.0, 0.017.51, 0
836059, -0.37, -0.0, -0.0, 0.0, 0.0, 0.017.56, 0
0, 0.0, 0.0, 0.0, 0.0, 0.0, 0.00.0, 0
836522, -0.28, -0.0, -0.0, 0.0, 0.0, 0.017.56, 0
836735, -0.32, -0.0, -0.0, 0.0, 0.0, 0.017.56, 0
836934, -0.34, -0.0, -0.0, 0.0, 0.0, 0.017.51, 0
837128, -0.41, -0.0, -0.0, 0.0, 0.0, 0.017.56, 0
0, 0.0, 0.0, 0.0, 0.0, 0.0, 0.00.0, 0
837483, -0.38, -0.0, -0.0, 0.0, 0.0, 0.017.56, 0
837772, -0.39, -0.0, -0.0, 0.0, 0.0, 0.017.51, 0
0, 0.0, 0.0, 0.0, 0.0, 0.0, 0.00.0, 0
838238, -0.4, -0.0, -0.0, 0.0, 0.0, 0.017.61, 0
838527, -0.37, -0.0, -0.0, 0.0, 0.0, 0.017.56, 0
0, 0.0, 0.0, 0.0, 0.0, 0.0, 0.00.0, 0
838878, -0.37, -0.0, -0.0, 0.0, 0.0, 0.017.51, 0
839165, -0.38, -0.0, -0.0, 0.0, 0.0, 0.017.56, 0
839305, -0.38, -0.0, -0.0, 0.0, 0.0, 0.017.51, 0
839500, -0.38, -0.0, -0.0, 0.0, 0.0, 0.017.47, 0
839698, -0.39, -0.0, -0.0, 0.0, 0.0, 0.017.61, 0
839835, -0.44, -0.0, -0.0, 0.0, 0.0, 0.017.56, 0
840038, -0.37, -0.0, -0.0, 0.0, 0.0, 0.017.56, 0
840159, -0.38, -0.0, -0.0, 0.0, 0.0, 0.017.56, 0
0, 0.0, 0.0, 0.0, 0.0, 0.0, 0.00.0, 0
840699, -0.36, -0.0, -0.0, 0.0, 0.0, 0.017.51, 0
840985, -0.34, -0.0, -0.0, 0.0, 0.0, 0.017.61, 0
841125, -0.4, -0.0, -0.0, 0.0, 0.0, 0.017.61, 0
841319, -0.37, -0.0, -0.0, 0.0, 0.0, 0.017.61, 0
841522, -0.37, -0.0, -0.0, 0.0, 0.0, 0.017.51, 0
0, 0.0, 0.0, 0.0, 0.0, 0.0, 0.00.0, 0
842060, -0.41, -0.0, -0.0, 0.0, 0.0, 0.017.51, 0
842199, -0.39, -0.0, -0.0, 0.0, 0.0, 0.017.47, 0
842397, -0.4, -0.0, -0.0, 0.0, 0.0, 0.017.51, 0
842595, -0.38, -0.0, -0.0, 0.0, 0.0, 0.017.61, 0
0, 0.0, 0.0, 0.0, 0.0, 0.0, 0.00.0, 0
842946, -0.34, -0.0, -0.0, 0.0, 0.0, 0.017.56, 0
843163, -0.44, -0.0, -0.0, 0.0, 0.0, 0.017.51, 0
843375, -0.37, -0.0, -0.0, 0.0, 0.0, 0.017.56, 0
843670, -0.32, -0.0, -0.0, 0.0, 0.0, 0.017.51, 0
0, 0.0, 0.0, 0.0, 0.0, 0.0, 0.00.0, 0
844021, -0.4, -0.0, -0.0, 0.0, 0.0, 0.017.51, 0
844131, -0.44, -0.0, -0.0, 0.0, 0.0, 0.017.47, 0
0, 0.0, 0.0, 0.0, 0.0, 0.0, 0.00.0, 0
844845, -0.31, -0.0, -0.0, 0.0, 0.0, 0.017.51, 0
844982, -0.37, -0.0, -0.0, 0.0, 0.0, 0.017.56, 0
845178, -0.42, -0.0, -0.0, 0.0, 0.0, 0.017.51, 0
845378, -0.39, -0.0, -0.0, 0.0, 0.0, 0.017.56, 0
0, 0.0, 0.0, 0.0, 0.0, 0.0, 0.00.0, 0
845917, -0.39, -0.0, -0.0, 0.0, 0.0, 0.017.56, 0
846055, -0.37, -0.0, -0.0, 0.0, 0.0, 0.017.47, 0
846251, -0.44, -0.0, -0.0, 0.0, 0.0, 0.017.56, 0
846448, -0.41, -0.0, -0.0, 0.0, 0.0, 0.017.61, 0
846587, -0.4, -0.0, -0.0, 0.0, 0.0, 0.017.51, 0
846785, -0.39, -0.0, -0.0, 0.0, 0.0, 0.017.51, 0
846981, -0.32, -0.0, -0.0, 0.0, 0.0, 0.017.56, 0
0, 0.0, 0.0, 0.0, 0.0, 0.0, 0.00.0, 0
847443, -0.4, -0.0, -0.0, 0.0, 0.0, 0.017.51, 0
847734, -0.36, -0.0, -0.0, 0.0, 0.0, 0.017.47, 0
0, 0.0, 0.0, 0.0, 0.0, 0.0, 0.00.0, 0
848156, -0.37, -0.0, -0.0, 0.0, 0.0, 0.017.56, 0
848374, -0.38, -0.0, -0.0, 0.0, 0.0, 0.017.61, 0
0, 0.0, 0.0, 0.0, 0.0, 0.0, 0.00.0, 0
848724, -0.32, -0.0, -0.0, 0.0, 0.0, 0.017.51, 0
849016, -0.36, -0.0, -0.0, 0.0, 0.0, 0.017.56, 0
0, 0.0, 0.0, 0.0, 0.0, 0.0, 0.00.0, 0
849552, -0.36, -0.0, -0.0, 0.0, 0.0, 0.017.51, 0
849767, -0.37, -0.0, -0.0, 0.0, 0.0, 0.017.47, 0
0, 0.0, 0.0, 0.0, 0.0, 0.0, 0.00.0, 0
850119, -0.46, -0.0, -0.0, 0.0, 0.0, 0.017.56, 0
850409, -0.39, -0.0, -0.0, 0.0, 0.0, 0.017.42, 0
850546, -0.44, -0.0, -0.0, 0.0, 0.0, 0.017.51, 0
850745, -0.41, -0.0, -0.0, 0.0, 0.0, 0.017.42, 0
850868, -0.35, -0.0, -0.0, 0.0, 0.0, 0.017.47, 0
851155, -0.33, -0.0, -0.0, 0.0, 0.0, 0.017.51, 0
0, 0.0, 0.0, 0.0, 0.0, 0.0, 0.00.0, 0
851509, -0.36, -0.0, -0.0, 0.0, 0.0, 0.017.47, 0
851798, -0.39, -0.0, -0.0, 0.0, 0.0, 0.017.47, 0
0, 0.0, 0.0, 0.0, 0.0, 0.0, 0.00.0, 0
852151, -0.37, -0.0, -0.0, 0.0, 0.0, 0.017.33, 0
852369, -0.37, -0.0, -0.0, 0.0, 0.0, 0.017.37, 0
852655, -0.33, -0.0, -0.0, 0.0, 0.0, 0.017.33, 0
852795, -0.39, -0.0, -0.0, 0.0, 0.0, 0.017.37, 0
852994, -0.43, -0.0, -0.0, 0.0, 0.0, 0.017.37, 0
853121, -0.39, -0.0, -0.0, 0.0, 0.0, 0.017.28, 0
853411, -0.4, -0.0, -0.0, 0.0, 0.0, 0.017.42, 0
853547, -0.39, -0.0, -0.0, 0.0, 0.0, 0.017.47, 0
0, 0.0, 0.0, 0.0, 0.0, 0.0, 0.00.0, 0
853952, -0.44, -0.0, -0.0, 0.0, 0.0, 0.017.37, 0
854078, -0.4, -0.0, -0.0, 0.0, 0.0, 0.017.42, 0
854366, -0.4, -0.0, -0.0, 0.0, 0.0, 0.017.37, 0
854581, -0.37, -0.0, -0.0, 0.0, 0.0, 0.017.42, 0
854718, -0.38, -0.0, -0.0, 0.0, 0.0, 0.017.47, 0
854914, -0.41, -0.0, -0.0, 0.0, 0.0, 0.017.51, 0
855114, -0.36, -0.0, -0.0, 0.0, 0.0, 0.017.37, 0
855252, -0.42, -0.0, -0.0, 0.0, 0.0, 0.017.42, 0
855450, -0.37, -0.0, -0.0, 0.0, 0.0, 0.017.47, 0
855647, -0.38, -0.0, -0.0, 0.0, 0.0, 0.017.47, 0
0, 0.0, 0.0, 0.0, 0.0, 0.0, 0.00.0, 0
856113, -0.38, -0.0, -0.0, 0.0, 0.0, 0.017.51, 0
856403, -0.37, -0.0, -0.0, 0.0, 0.0, 0.017.51, 0
856617, -0.37, -0.0, -0.0, 0.0, 0.0, 0.017.51, 0
856755, -0.35, -0.0, -0.0, 0.0, 0.0, 0.017.56, 0
856950, -0.39, -0.0, -0.0, 0.0, 0.0, 0.017.61, 0
857146, -0.39, -0.0, -0.0, 0.0, 0.0, 0.017.75, 0
857288, -0.4, -0.0, -0.0, 0.0, 0.0, 0.017.7, 0
857484, -0.39, -0.0, -0.0, 0.0, 0.0, 0.017.65, 0
0, 0.0, 0.0, 0.0, 0.0, 0.0, 0.00.0, 0
857837, -0.39, -0.0, -0.0, 0.0, 0.0, 0.017.8, 0
858125, -0.41, -0.0, -0.0, 0.0, 0.0, 0.017.8, 0
858338, -0.38, -0.0, -0.0, 0.0, 0.0, 0.017.84, 0
858553, -0.39, -0.0, -0.0, 0.0, 0.0, 0.017.89, 0
0, 0.0, 0.0, 0.0, 0.0, 0.0, 0.00.0, 0
858904, -0.39, -0.0, -0.0, 0.0, 0.0, 0.017.84, 0
859193, -0.37, -0.0, -0.0, 0.0, 0.0, 0.018.03, 0
859330, -0.38, -0.0, -0.0, 0.0, 0.0, 0.017.94, 0
859532, -0.41, -0.0, -0.0, 0.0, 0.0, 0.017.94, 0
859654, -0.34, -0.0, -0.0, 0.0, 0.0, 0.017.98, 0
859944, -0.38, -0.0, -0.0, 0.0, 0.0, 0.018.12, 0
0, 0.0, 0.0, 0.0, 0.0, 0.0, 0.00.0, 0
860297, -0.39, -0.0, -0.0, 0.0, 0.0, 0.018.12, 0
860585, -0.4, -0.0, -0.0, 0.0, 0.0, 0.018.17, 0
860722, -0.38, -0.0, -0.0, 0.0, 0.0, 0.018.08, 0
860922, -0.37, -0.0, -0.0, 0.0, 0.0, 0.018.08, 0
861043, -0.36, -0.0, -0.0, 0.0, 0.0, 0.018.12, 0
861259, -0.38, -0.0, -0.0, 0.0, 0.0, 0.018.17, 0
0, 0.0, 0.0, 0.0, 0.0, 0.0, 0.00.0, 0
861688, -0.39, -0.0, -0.0, 0.0, 0.0, 0.018.27, 0
861975, -0.44, -0.0, -0.0, 0.0, 0.0, 0.018.22, 0
0, 0.0, 0.0, 0.0, 0.0, 0.0, 0.00.0, 0
862327, -0.35, -0.0, -0.0, 0.0, 0.0, 0.018.27, 0
862541, -0.35, -0.0, -0.0, 0.0, 0.0, 0.018.31, 0
862827, -0.44, -0.0, -0.0, 0.0, 0.0, 0.018.31, 0
862967, -0.39, -0.0, -0.0, 0.0, 0.0, 0.018.31, 0
0, 0.0, 0.0, 0.0, 0.0, 0.0, 0.00.0, 0
863508, -0.36, -0.0, -0.0, 0.0, 0.0, 0.018.41, 0
863720, -0.33, -0.0, -0.0, 0.0, 0.0, 0.018.41, 0
863918, -0.43, -0.0, -0.0, 0.0, 0.0, 0.018.41, 0
864115, -0.33, -0.0, -0.0, 0.0, 0.0, 0.018.36, 0
0, 0.0, 0.0, 0.0, 0.0, 0.0, 0.00.0, 0
864468, -33, 469, -146, -4, -1538, 01855, 1
864755, -0.32, -0.0, -0.0, 0.0, 0.0, 0.018.41, 0
0, 0.0, 0.0, 0.0, 0.0, 0.0, 0.00.0, 0
865295, -0.39, -0.0, -0.0, 0.0, 0.0, 0.018.41, 0
865430, -0.32, -0.0, -0.0, 0.0, 0.0, 0.018.41, 0
865628, -0.42, -0.0, -0.0, 0.0, 0.0, 0.018.36, 0
865825, -0.32, -0.0, -0.0, 0.0, 0.0, 0.018.36, 0
0, 0.0, 0.0, 0.0, 0.0, 0.0, 0.00.0, 0
866248, -0.38, -0.0, -0.0, 0.0, 0.0, 0.018.36, 0
866464, -0.44, -0.0, -0.0, 0.0, 0.0, 0.018.31, 0
0, 0.0, 0.0, 0.0, 0.0, 0.0, 0.00.0, 0
866926, -0.36, -0.0, -0.0, 0.0, 0.0, 0.018.45, 0
0, 0.0, 0.0, 0.0, 0.0, 0.0, 0.00.0, 0
867540, -0.39, -0.0, -0.0, 0.0, 0.0, 0.018.31, 0
0, 0.0, 0.0, 0.0, 0.0, 0.0, 0.00.0, 0
868005, -0.35, -0.0, -0.0, 0.0, 0.0, 0.018.36, 0
868301, -0.36, -0.0, -0.0, 0.0, 0.0, 0.018.36, 0
0, 0.0, 0.0, 0.0, 0.0, 0.0, 0.00.0, 0
868766, -0.38, -0.0, -0.0, 0.0, 0.0, 0.018.36, 0
869053, -0.36, -0.0, -0.0, 0.0, 0.0, 0.018.36, 0
869192, -0.41, -0.0, -0.0, 0.0, 0.0, 0.018.36, 0
869387, -0.38, -0.0, -0.0, 0.0, 0.0, 0.018.36, 0
869587, -0.36, -0.0, -0.0, 0.0, 0.0, 0.018.31, 0
869723, -0.38, -0.0, -0.0, 0.0, 0.0, 0.018.27, 0
869921, -0.41, -0.0, -0.0, 0.0, 0.0, 0.018.22, 0
870119, -0.35, -0.0, -0.0, 0.0, 0.0, 0.018.22, 0
870337, -0.36, -0.0, -0.0, 0.0, 0.0, 0.018.31, 0
0, 0.0, 0.0, 0.0, 0.0, 0.0, 0.00.0, 0
870689, -0.36, -0.0, -0.0, 0.0, 0.0, 0.018.17, 0
870882, -0.41, -0.0, -0.0, 0.0, 0.0, 0.018.31, 0
871172, -0.38, -0.0, -0.0, 0.0, 0.0, 0.018.22, 0
0, 0.0, 0.0, 0.0, 0.0, 0.0, 0.00.0, 0
871524, -0.32, -0.0, -0.0, 0.0, 0.0, 0.018.22, 0
871813, -0.39, -0.0, -0.0, 0.0, 0.0, 0.018.17, 0
871949, -0.34, -0.0, -0.0, 0.0, 0.0, 0.018.22, 0
872152, -0.36, -0.0, -0.0, 0.0, 0.0, 0.018.27, 0
872275, -0.42, -0.0, -0.0, 0.0, 0.0, 0.018.22, 0
872564, -0.41, -0.0, -0.0, 0.0, 0.0, 0.018.17, 0
0, 0.0, 0.0, 0.0, 0.0, 0.0, 0.00.0, 0
872915, -0.39, -0.0, -0.0, 0.0, 0.0, 0.018.17, 0
873204, -0.39, -0.0, -0.0, 0.0, 0.0, 0.018.12, 0
873342, -0.38, -0.0, -0.0, 0.0, 0.0, 0.018.27, 0
873536, -0.36, -0.0, -0.0, 0.0, 0.0, 0.018.22, 0
873657, -0.34, -0.0, -0.0, 0.0, 0.0, 0.018.17, 0
873951, -0.37, -0.0, -0.0, 0.0, 0.0, 0.018.12, 0
0, 0.0, 0.0, 0.0, 0.0, 0.0, 0.00.0, 0
874303, -0.38, -0.0, -0.0, 0.0, 0.0, 0.018.12, 0
874592, -0.4, -0.0, -0.0, 0.0, 0.0, 0.018.08, 0
0, 0.0, 0.0, 0.0, 0.0, 0.0, 0.00.0, 0
874944, -0.38, -0.0, -0.0, 0.0, 0.0, 0.018.17, 0
875159, -0.38, -0.0, -0.0, 0.0, 0.0, 0.018.08, 0
875370, -0.37, -0.0, -0.0, 0.0, 0.0, 0.018.03, 0
875588, -0.32, -0.0, -0.0, 0.0, 0.0, 0.018.17, 0
875877, -0.35, -0.0, -0.0, 0.0, 0.0, 0.018.08, 0
876013, -0.37, -0.0, -0.0, 0.0, 0.0, 0.018.08, 0
876211, -0.39, -0.0, -0.0, 0.0, 0.0, 0.018.08, 0
876408, -0.37, -0.0, -0.0, 0.0, 0.0, 0.018.12, 0
876548, -0.39, -0.0, -0.0, 0.0, 0.0, 0.018.08, 0
0, 0.0, 0.0, 0.0, 0.0, 0.0, 0.00.0, 0
876956, -0.4, -0.0, -0.0, 0.0, 0.0, 0.017.98, 0
877078, -0.34, -0.0, -0.0, 0.0, 0.0, 0.018.12, 0
877294, -0.38, -0.0, -0.0, 0.0, 0.0, 0.018.08, 0
877509, -0.34, -0.0, -0.0, 0.0, 0.0, 0.018.03, 0
877795, -0.39, -0.0, -0.0, 0.0, 0.0, 0.018.08, 0
878010, -0.35, -0.0, -0.0, 0.0, 0.0, 0.018.03, 0
0, 0.0, 0.0, 0.0, 0.0, 0.0, 0.00.0, 0
878472, -0.4, -0.0, -0.0, 0.0, 0.0, 0.017.98, 0
878687, -0.41, -0.0, -0.0, 0.0, 0.0, 0.018.03, 0
878885, -0.38, -0.0, -0.0, 0.0, 0.0, 0.017.98, 0
879007, -0.4, -0.0, -0.0, 0.0, 0.0, 0.018.03, 0
879223, -0.36, -0.0, -0.0, 0.0, 0.0, 0.018.03, 0
879417, -0.4, -0.0, -0.0, 0.0, 0.0, 0.018.08, 0
879618, -0.39, -0.0, -0.0, 0.0, 0.0, 0.018.03, 0
879754, -0.41, -0.0, -0.0, 0.0, 0.0, 0.018.03, 0
879952, -0.31, -0.0, -0.0, 0.0, 0.0, 0.018.03, 0
880145, -0.39, -0.0, -0.0, 0.0, 0.0, 0.017.98, 0
0, 0.0, 0.0, 0.0, 0.0, 0.0, 0.00.0, 0
880500, -0.39, -0.0, -0.0, 0.0, 0.0, 0.017.89, 0
880714, -0.41, -0.0, -0.0, 0.0, 0.0, 0.017.84, 0
880933, -0.34, -0.0, -0.0, 0.0, 0.0, 0.017.94, 0
881144, -0.38, -0.0, -0.0, 0.0, 0.0, 0.017.94, 0
881343, -0.42, -0.0, -0.0, 0.0, 0.0, 0.017.98, 0
881540, -0.35, -0.0, -0.0, 0.0, 0.0, 0.017.94, 0
0, 0.0, 0.0, 0.0, 0.0, 0.0, 0.00.0, 0
881890, -0.35, -0.0, -0.0, 0.0, 0.0, 0.018.03, 0
882105, -0.39, -0.0, -0.0, 0.0, 0.0, 0.018.03, 0
0, 0.0, 0.0, 0.0, 0.0, 0.0, 0.00.0, 0
882531, -0.4, -0.0, -0.0, 0.0, 0.0, 0.017.94, 0
882825, -0.35, -0.0, -0.0, 0.0, 0.0, 0.017.94, 0
882962, -0.38, -0.0, -0.0, 0.0, 0.0, 0.018.03, 0
883158, -0.42, -0.0, -0.0, 0.0, 0.0, 0.018.03, 0
883355, -0.4, -0.0, -0.0, -0.01, -0.01, -0.0117.98, 0
883495, -0.35, -0.0, -0.0, 0.0, 0.0, 0.017.94, 0
883693, -0.31, -0.0, -0.0, 0.0, 0.0, 0.018.03, 0
883890, -0.36, -0.0, -0.0, 0.0, 0.0, 0.018.03, 0
0, 0.0, 0.0, 0.0, 0.0, 0.0, 0.00.0, 0
884310, -0.39, -0.0, -0.0, 0.0, 0.0, 0.017.84, 0
884447, -0.38, -0.0, -0.0, 0.0, 0.0, 0.017.94, 0
884646, -0.39, -0.0, -0.0, 0.0, 0.0, 0.017.94, 0
884842, -0.43, -0.0, -0.0, 0.0, 0.0, 0.017.94, 0
0, 0.0, 0.0, 0.0, 0.0, 0.0, 0.00.0, 0
885193, -0.43, -0.0, -0.0, 0.0, 0.0, 0.017.89, 0
885481, -0.42, -0.0, -0.0, 0.0, 0.0, 0.017.94, 0
0, 0.0, 0.0, 0.0, 0.0, 0.0, 0.00.0, 0
885833, -0.41, -0.0, -0.0, 0.0, 0.0, 0.017.94, 0
886120, -0.37, -0.0, -0.0, 0.0, 0.0, 0.017.94, 0
0, 0.0, 0.0, 0.0, 0.0, 0.0, 0.00.0, 0
886660, -0.39, -0.0, -0.0, 0.0, 0.0, 0.018.03, 0
886799, -0.35, -0.0, -0.0, 0.0, 0.0, 0.018.08, 0
886996, -0.39, -0.0, -0.0, 0.0, 0.0, 0.017.98, 0
887193, -0.33, -0.0, -0.0, 0.0, 0.0, 0.017.94, 0
887332, -0.37, -0.0, -0.0, 0.0, 0.0, 0.017.89, 0
887528, -0.4, -0.0, -0.0, 0.0, 0.0, 0.017.94, 0
887650, -0.43, -0.0, -0.0, 0.0, 0.0, 0.017.98, 0
887865, -0.37, -0.0, -0.0, 0.0, 0.0, 0.018.03, 0
888067, -0.34, -0.0, -0.0, 0.0, 0.0, 0.017.98, 0
888192, -0.41, -0.0, -0.0, 0.0, 0.0, 0.017.94, 0
888406, -0.38, -0.0, -0.0, 0.0, 0.0, 0.017.98, 0
888617, -0.4, -0.0, -0.0, 0.0, 0.0, 0.017.94, 0
888814, -0.35, -0.0, -0.0, 0.0, 0.0, 0.017.98, 0
889013, -0.36, -0.0, -0.0, 0.0, 0.0, 0.017.94, 0
0, 0.0, 0.0, 0.0, 0.0, 0.0, 0.00.0, 0
889364, -0.39, -0.0, -0.0, 0.0, 0.0, 0.017.94, 0
889653, -0.36, -0.0, -0.0, 0.0, 0.0, 0.017.89, 0
0, 0.0, 0.0, 0.0, 0.0, 0.0, 0.00.0, 0
890121, -0.42, -0.0, -0.0, 0.0, 0.0, 0.017.94, 0
890413, -0.4, -0.0, -0.0, 0.0, 0.0, 0.017.94, 0
0, 0.0, 0.0, 0.0, 0.0, 0.0, 0.00.0, 0
890878, -0.45, -0.0, -0.0, 0.0, 0.0, 0.017.94, 0
891088, -0.35, -0.0, -0.0, 0.0, 0.0, 0.017.98, 0
891287, -0.4, -0.0, -0.0, 0.0, 0.0, 0.017.98, 0
891483, -0.4, -0.0, -0.0, 0.0, 0.0, 0.017.94, 0
0, 0.0, 0.0, 0.0, 0.0, 0.0, 0.00.0, 0
891837, -0.4, -0.0, -0.0, 0.0, 0.0, 0.017.84, 0
892121, -0.38, -0.0, -0.0, 0.0, 0.0, 0.017.89, 0
0, 0.0, 0.0, 0.0, 0.0, 0.0, 0.00.0, 0
892472, -0.39, -0.0, -0.0, 0.0, 0.0, 0.017.94, 0
892759, -0.38, -0.0, -0.0, 0.0, 0.0, 0.017.84, 0
0, 0.0, 0.0, 0.0, 0.0, 0.0, 0.00.0, 0
893110, -0.35, -0.0, -0.0, 0.0, 0.0, 0.017.89, 0
893327, -0.38, -0.0, -0.0, 0.0, 0.0, 0.017.75, 0
893538, -0.39, -0.0, -0.0, 0.0, 0.0, 0.017.89, 0
893828, -0.39, -0.0, -0.0, 0.0, 0.0, 0.017.84, 0
0, 0.0, 0.0, 0.0, 0.0, 0.0, 0.00.0, 0
894179, -0.37, -0.0, -0.0, 0.0, 0.0, 0.017.94, 0
894467, -0.43, -0.0, -0.0, 0.0, 0.0, 0.017.89, 0
0, 0.0, 0.0, 0.0, 0.0, 0.0, 0.00.0, 0
894819, -0.39, -0.0, -0.0, 0.0, 0.0, 0.017.8, 0
895034, -0.39, -0.0, -0.0, 0.0, 0.0, 0.017.89, 0
895253, -0.39, -0.0, -0.0, 0.0, 0.0, 0.017.94, 0
895543, -0.38, -0.0, -0.0, 0.0, 0.0, 0.017.94, 0
0, 0.0, 0.0, 0.0, 0.0, 0.0, 0.00.0, 0
895895, -0.4, -0.0, -0.0, 0.0, 0.0, 0.017.89, 0
896110, -0.43, -0.0, -0.0, 0.0, 0.0, 0.018.03, 0
896327, -0.38, -0.0, -0.0, 0.0, 0.0, 0.017.84, 0
896538, -0.38, -0.0, -0.0, 0.0, 0.0, 0.018.03, 0
896736, -0.32, -0.0, -0.0, 0.0, 0.0, 0.018.08, 0
896936, -0.37, -0.0, -0.0, 0.0, 0.0, 0.017.98, 0
0, 0.0, 0.0, 0.0, 0.0, 0.0, 0.00.0, 0
897401, -0.38, -0.0, -0.0, 0.0, 0.0, 0.018.08, 0
897691, -0.36, -0.0, -0.0, 0.0, 0.0, 0.018.08, 0
897829, -0.35, -0.0, -0.0, 0.0, 0.0, 0.018.08, 0
898028, -0.39, -0.0, -0.0, 0.0, 0.0, 0.018.08, 0
898151, -0.38, -0.0, -0.0, 0.0, 0.0, 0.018.17, 0
898442, -0.41, -0.0, -0.0, 0.0, 0.0, 0.018.27, 0
0, 0.0, 0.0, 0.0, 0.0, 0.0, 0.00.0, 0
898980, -0.37, -0.0, -0.0, 0.0, 0.0, 0.018.03, 0
899114, -0.43, -0.0, -0.0, 0.0, 0.0, 0.018.17, 0
899311, -0.39, -0.0, -0.0, 0.0, 0.0, 0.018.03, 0
899507, -0.37, -0.0, -0.0, 0.0, 0.0, 0.018.03, 0
0, 0.0, 0.0, 0.0, 0.0, 0.0, 0.00.0, 0
899858, -0.35, -0.0, -0.0, 0.0, 0.0, 0.018.17, 0
900140, -0.41, -0.0, -0.0, 0.0, 0.0, 0.018.08, 0
0, 0.0, 0.0, 0.0, 0.0, 0.0, 0.00.0, 0
900610, -0.44, -0.0, -0.0, 0.0, 0.0, 0.018.08, 0
900896, -0.37, -0.0, -0.0, 0.0, 0.0, 0.018.08, 0
0, 0.0, 0.0, 0.0, 0.0, 0.0, 0.00.0, 0
901250, -0.37, -0.0, -0.0, 0.0, 0.0, 0.018.12, 0
901541, -0.37, -0.0, -0.0, 0.0, 0.0, 0.018.22, 0
0, 0.0, 0.0, 0.0, 0.0, 0.0, 0.00.0, 0
901893, -0.37, -0.0, -0.0, 0.0, 0.0, 0.018.17, 0
902110, -0.38, -0.0, -0.0, 0.0, 0.0, 0.018.08, 0
902329, -0.34, -0.0, -0.0, 0.0, 0.0, 0.018.12, 0
902615, -0.33, -0.0, -0.0, 0.0, 0.0, 0.018.12, 0
0, 0.0, 0.0, 0.0, 0.0, 0.0, 0.00.0, 0
902967, -0.41, -0.0, -0.0, 0.0, 0.0, 0.018.12, 0
903179, -0.37, -0.0, -0.0, 0.0, 0.0, 0.018.08, 0
0, 0.0, 0.0, 0.0, 0.0, 0.0, 0.00.0, 0
903604, -0.33, -0.0, -0.0, 0.0, 0.0, 0.018.03, 0
903892, -0.39, -0.0, -0.0, 0.0, 0.0, 0.018.12, 0
0, 0.0, 0.0, 0.0, 0.0, 0.0, 0.00.0, 0
904358, -0.38, -0.0, -0.0, 0.0, 0.0, 0.018.08, 0
904649, -0.35, -0.0, -0.0, 0.0, 0.0, 0.018.03, 0
0, 0.0, 0.0, 0.0, 0.0, 0.0, 0.00.0, 0
905000, -0.36, -0.0, -0.0, 0.0, 0.0, 0.018.03, 0
905292, -0.4, -0.0, -0.0, 0.0, 0.0, 0.018.17, 0
0, 0.0, 0.0, 0.0, 0.0, 0.0, 0.00.0, 0
