Time (ms), Time (us), accX, accY, accZ, gyroX, gyroY, gyroZ, tempC, Packet Error
139866, 139866581, -10.85, -0.11, -0.11, -0.19, -0.19, -0.19, 29.94, 0
141641, 141641574, -10.88, -0.11, -0.11, -0.17, -0.17, -0.17, 30.03, 0
141767, 141767584, -10.87, -0.11, -0.11, -0.19, -0.19, -0.19, 30.03, 0
142005, 142005579, -10.88, -0.11, -0.11, -0.09, -0.09, -0.09, 29.98, 0
142148, 142148576, -10.92, -0.11, -0.11, -0.22, -0.22, -0.22, 30.03, 0
142387, 142387583, -10.87, -0.11, -0.11, -0.26, -0.26, -0.26, 30.08, 0
142537, 142537584, -10.88, -0.11, -0.11, -0.1, -0.1, -0.1, 30.03, 0
142770, 142770583, -10.88, -0.11, -0.11, -0.23, -0.23, -0.23, 30.13, 0
142911, 142911584, -10.9, -0.11, -0.11, -0.11, -0.11, -0.11, 30.08, 0
143150, 143150583, -10.85, -0.11, -0.11, -0.19, -0.19, -0.19, 30.03, 0
143292, 143292583, -10.89, -0.11, -0.11, -0.21, -0.21, -0.21, 30.03, 0
143529, 143529583, -10.85, -0.11, -0.11, -0.12, -0.12, -0.12, 29.98, 0
143673, 143673584, -10.99, -0.11, -0.11, -0.17, -0.17, -0.17, 30.08, 0
143911, 143911583, -10.8, -0.11, -0.11, -0.12, -0.12, -0.12, 30.08, 0
144058, 144058584, -10.9, -0.11, -0.11, -0.25, -0.25, -0.25, 30.03, 0
144293, 144293583, -10.84, -0.11, -0.11, -0.14, -0.14, -0.14, 30.03, 0
144436, 144436584, -10.83, -0.11, -0.11, -0.13, -0.13, -0.13, 30.03, 0
144686, 144686985, -10.82, -0.11, -0.11, -0.08, -0.08, -0.08, 30.13, 0
144819, 144819584, -10.88, -0.11, -0.11, -0.11, -0.11, -0.11, 30.13, 0
145069, 145069581, -10.85, -0.11, -0.11, -0.13, -0.13, -0.13, 29.94, 0
145202, 145202584, -10.82, -0.11, -0.11, -0.22, -0.22, -0.22, 30.03, 0
145436, 145436582, -10.86, -0.11, -0.11, -0.08, -0.08, -0.08, 30.13, 0
145579, 145579579, -10.87, -0.11, -0.11, -0.12, -0.12, -0.12, 30.03, 0
145818, 145818583, -10.87, -0.11, -0.11, -0.16, -0.16, -0.16, 30.13, 0
145960, 145960577, -10.85, -0.11, -0.11, -0.06, -0.06, -0.06, 30.13, 0
146199, 146199583, -10.83, -0.11, -0.11, -0.01, -0.01, -0.01, 30.17, 0
146342, 146342584, -10.86, -0.11, -0.11, -0.09, -0.09, -0.09, 30.13, 0
146583, 146583583, -10.86, -0.11, -0.11, -0.09, -0.09, -0.09, 30.13, 0
146708, 146708587, -10.86, -0.11, -0.11, -0.15, -0.15, -0.15, 30.08, 0
147073, 147073581, -10.92, -0.11, -0.11, -0.09, -0.09, -0.09, 30.08, 0
147331, 147331574, -10.95, -0.11, -0.11, 0.0, 0.0, 0.0, 30.17, 0
147454, 147454584, -10.9, -0.11, -0.11, -0.15, -0.15, -0.15, 30.13, 0
147689, 147689583, -10.82, -0.11, -0.11, -0.12, -0.12, -0.12, 30.17, 0
147838, 147838584, -10.79, -0.11, -0.11, -0.15, -0.15, -0.15, 30.13, 0
148073, 148073583, -10.91, -0.11, -0.11, -0.18, -0.18, -0.18, 30.17, 0
148216, 148216577, -10.9, -0.11, -0.11, -0.05, -0.05, -0.05, 30.22, 0
148451, 148451583, -10.81, -0.11, -0.11, -0.12, -0.12, -0.12, 30.22, 0
148595, 148595577, -10.89, -0.11, -0.11, -0.19, -0.19, -0.19, 30.22, 0
148833, 148833583, -10.91, -0.11, -0.11, -0.11, -0.11, -0.11, 30.17, 0
148979, 148979584, -10.85, -0.11, -0.11, -0.05, -0.05, -0.05, 30.13, 0
149214, 149214583, -10.89, -0.11, -0.11, -0.04, -0.04, -0.04, 30.17, 0
149358, 149358577, -10.89, -0.11, -0.11, -0.13, -0.13, -0.13, 30.27, 0
149595, 149595583, -10.83, -0.11, -0.11, -0.12, -0.12, -0.12, 30.22, 0
149739, 149739577, -10.89, -0.11, -0.11, -0.13, -0.13, -0.13, 30.13, 0
149980, 149980583, -10.85, -0.11, -0.11, -0.15, -0.15, -0.15, 30.13, 0
150121, 150121584, -10.85, -0.11, -0.11, -0.16, -0.16, -0.16, 30.13, 0
150358, 150358583, -10.86, -0.11, -0.11, -0.1, -0.1, -0.1, 30.27, 0
150504, 150504584, -10.88, -0.11, -0.11, -0.02, -0.02, -0.02, 30.22, 0
150741, 150741582, -10.91, -0.11, -0.11, -0.18, -0.18, -0.18, 30.13, 0
150881, 150881584, -10.88, -0.11, -0.11, -0.16, -0.16, -0.16, 30.13, 0
151120, 151120582, -10.93, -0.11, -0.11, -0.15, -0.15, -0.15, 30.13, 0
151263, 151263576, -10.84, -0.11, -0.11, -0.08, -0.08, -0.08, 30.17, 0
151501, 151501581, -10.89, -0.11, -0.11, -0.07, -0.07, -0.07, 30.17, 0
151644, 151644585, -10.85, -0.11, -0.11, -0.1, -0.1, -0.1, 30.17, 0
151883, 151883577, -10.89, -0.11, -0.11, -0.24, -0.24, -0.24, 30.13, 0
152023, 152023583, -10.89, -0.11, -0.11, -0.16, -0.16, -0.16, 30.17, 0
152261, 152261582, -10.89, -0.11, -0.11, -0.09, -0.09, -0.09, 30.22, 0
152405, 152405583, -10.86, -0.11, -0.11, -0.02, -0.02, -0.02, 30.22, 0
152646, 152646581, -10.89, -0.11, -0.11, -0.16, -0.16, -0.16, 30.22, 0
152792, 152792585, -10.88, -0.11, -0.11, -0.14, -0.14, -0.14, 30.27, 0
153024, 153024582, -10.87, -0.11, -0.11, -0.1, -0.1, -0.1, 30.17, 0
153173, 153173583, -10.87, -0.11, -0.11, -0.1, -0.1, -0.1, 30.22, 0
153406, 153406582, -10.88, -0.11, -0.11, -0.06, -0.06, -0.06, 30.17, 0
153548, 153548583, -10.88, -0.11, -0.11, -0.07, -0.07, -0.07, 30.17, 0
153789, 153789582, -10.92, -0.11, -0.11, -0.18, -0.18, -0.18, 30.22, 0
153929, 153929585, -10.84, -0.11, -0.11, -0.1, -0.1, -0.1, 30.22, 0
154166, 154166582, -10.84, -0.11, -0.11, -0.15, -0.15, -0.15, 30.17, 0
154314, 154314583, -10.87, -0.11, -0.11, -0.15, -0.15, -0.15, 30.17, 0
154548, 154548582, -10.85, -0.11, -0.11, -0.12, -0.12, -0.12, 30.27, 0
154690, 154690576, -10.87, -0.11, -0.11, -0.14, -0.14, -0.14, 30.22, 0
154930, 154930582, -10.89, -0.11, -0.11, -0.02, -0.02, -0.02, 30.31, 0
155073, 155073576, -10.86, -0.11, -0.11, -0.18, -0.18, -0.18, 30.22, 0
155314, 155314582, -10.91, -0.11, -0.11, -0.06, -0.06, -0.06, 30.27, 0
155453, 155453583, -10.86, -0.11, -0.11, -0.06, -0.06, -0.06, 30.27, 0
155692, 155692582, -10.9, -0.11, -0.11, 0.0, 0.0, 0.0, 30.27, 0
155836, 155836585, -10.84, -0.11, -0.11, -0.05, -0.05, -0.05, 30.22, 0
156072, 156072582, -10.84, -0.11, -0.11, -0.18, -0.18, -0.18, 30.17, 0
156215, 156215585, -10.81, -0.11, -0.11, -0.18, -0.18, -0.18, 30.27, 0
156454, 156454581, -10.84, -0.11, -0.11, -0.13, -0.13, -0.13, 30.22, 0
156596, 156596575, -10.89, -0.11, -0.11, -0.17, -0.17, -0.17, 30.22, 0
156838, 156838582, -10.79, -0.11, -0.11, -0.13, -0.13, -0.13, 30.17, 0
156976, 156976585, -10.92, -0.11, -0.11, -0.14, -0.14, -0.14, 30.31, 0
157215, 157215582, -10.85, -0.11, -0.11, -0.12, -0.12, -0.12, 30.36, 0
157358, 157358585, -10.88, -0.11, -0.11, -0.22, -0.22, -0.22, 30.27, 0
157595, 157595581, -10.88, -0.11, -0.11, -0.1, -0.1, -0.1, 30.31, 0
157741, 157741583, -10.86, -0.11, -0.11, -0.07, -0.07, -0.07, 30.27, 0
157981, 157981582, -10.86, -0.11, -0.11, -0.08, -0.08, -0.08, 30.22, 0
158121, 158121575, -10.88, -0.11, -0.11, -0.14, -0.14, -0.14, 30.22, 0
158359, 158359582, -10.9, -0.11, -0.11, -0.06, -0.06, -0.06, 30.27, 0
158505, 158505583, -10.88, -0.11, -0.11, -0.27, -0.27, -0.27, 30.22, 0
158738, 158738582, -10.86, -0.11, -0.11, -0.08, -0.08, -0.08, 30.27, 0
158885, 158885583, -10.83, -0.11, -0.11, -0.12, -0.12, -0.12, 30.22, 0
159120, 159120582, -10.85, -0.11, -0.11, -0.01, -0.01, -0.01, 30.22, 0
159263, 159263583, -10.91, -0.11, -0.11, -0.06, -0.06, -0.06, 30.17, 0
159501, 159501582, -10.89, -0.11, -0.11, -0.12, -0.12, -0.12, 30.22, 0
159644, 159644583, -10.85, -0.11, -0.11, -0.11, -0.11, -0.11, 30.27, 0
159883, 159883582, -10.88, -0.11, -0.11, -0.15, -0.15, -0.15, 30.27, 0
160026, 160026583, -10.89, -0.11, -0.11, -0.15, -0.15, -0.15, 30.31, 0
160263, 160263582, -10.92, -0.11, -0.11, -0.1, -0.1, -0.1, 30.27, 0
160532, 160532580, -10.88, -0.11, -0.11, -0.18, -0.18, -0.18, 30.36, 0
0, 0, 0.0, 0.0, 0.0, 0.0, 0.0, 0.0, 0.0, 0
161023, 161023577, -10.87, -0.11, -0.11, -0.2, -0.2, -0.2, 30.22, 0
161169, 161169580, -10.93, -0.11, -0.11, -0.1, -0.1, -0.1, 30.22, 0
161421, 161421573, -10.82, -0.11, -0.11, -0.23, -0.23, -0.23, 30.22, 0
0, 0, 0.0, 0.0, 0.0, 0.0, 0.0, 0.0, 0.0, 0
161913, 161913582, -10.85, -0.11, -0.11, -0.07, -0.07, -0.07, 30.22, 0
162053, 162053583, -10.91, -0.11, -0.11, -0.16, -0.16, -0.16, 30.31, 0
162296, 162296582, -10.85, -0.11, -0.11, -0.16, -0.16, -0.16, 30.31, 0
162435, 162435585, -10.87, -0.11, -0.11, -0.07, -0.07, -0.07, 30.31, 0
162672, 162672696, -10.82, -0.11, -0.11, -0.11, -0.11, -0.11, 30.27, 0
162823, 162823576, -10.9, -0.11, -0.11, -0.11, -0.11, -0.11, 30.31, 0
163055, 163055577, -10.78, -0.11, -0.11, -0.23, -0.23, -0.23, 30.22, 0
163329, 163329580, -10.83, -0.11, -0.11, -0.23, -0.23, -0.23, 30.41, 0
0, 0, 0.0, 0.0, 0.0, 0.0, 0.0, 0.0, 0.0, 0
163816, 163816577, -10.83, -0.11, -0.11, -0.27, -0.27, -0.27, 30.22, 0
163959, 163959580, -10.84, -0.11, -0.11, -0.19, -0.19, -0.19, 30.27, 0
164214, 164214573, -10.85, -0.11, -0.11, -0.24, -0.24, -0.24, 30.31, 0
0, 0, 0.0, 0.0, 0.0, 0.0, 0.0, 0.0, 0.0, 0
164706, 164706582, -10.85, -0.11, -0.11, -0.19, -0.19, -0.19, 30.27, 0
164850, 164850583, -10.91, -0.11, -0.11, -0.12, -0.12, -0.12, 30.31, 0
165087, 165087582, -10.87, -0.11, -0.11, -0.11, -0.11, -0.11, 30.31, 0
165231, 165231583, -10.9, -0.11, -0.11, -0.06, -0.06, -0.06, 30.31, 0
165472, 165472582, -10.91, -0.11, -0.11, -0.17, -0.17, -0.17, 30.36, 0
165611, 165611583, -10.84, -0.11, -0.11, -0.22, -0.22, -0.22, 30.27, 0
165850, 165850582, -10.91, -0.11, -0.11, -0.07, -0.07, -0.07, 30.22, 0
165997, 165997583, -10.8, -0.11, -0.11, -0.22, -0.22, -0.22, 30.31, 0
166232, 166232582, -10.9, -0.11, -0.11, -0.23, -0.23, -0.23, 30.31, 0
166375, 166375583, -10.81, -0.11, -0.11, -0.09, -0.09, -0.09, 30.31, 0
166613, 166613582, -10.8, -0.11, -0.11, -0.14, -0.14, -0.14, 30.31, 0
166883, 166883580, -10.87, -0.11, -0.11, -0.14, -0.14, -0.14, 30.41, 0
167138, 167138580, -10.82, -0.11, -0.11, -0.09, -0.09, -0.09, 30.36, 0
167265, 167265585, -10.84, -0.11, -0.11, -0.19, -0.19, -0.19, 30.27, 0
167390, 167390576, -10.83, -0.11, -0.11, -0.22, -0.22, -0.22, 30.41, 0
167625, 167625583, -10.96, -0.11, -0.11, -0.22, -0.22, -0.22, 30.27, 0
167954, 167954573, -10.84, -0.11, -0.11, -0.24, -0.24, -0.24, 30.36, 0
0, 0, 0.0, 0.0, 0.0, 0.0, 0.0, 0.0, 0.0, 0
168446, 168446582, -10.83, -0.11, -0.11, -0.25, -0.25, -0.25, 30.36, 0
168590, 168590585, -10.87, -0.11, -0.11, -0.24, -0.24, -0.24, 30.41, 0
168827, 168827582, -10.92, -0.11, -0.11, -0.22, -0.22, -0.22, 30.31, 0
168972, 168972585, -10.84, -0.11, -0.11, -0.15, -0.15, -0.15, 30.31, 0
169209, 169209582, -10.88, -0.11, -0.11, -0.24, -0.24, -0.24, 30.41, 0
169355, 169355583, -10.89, -0.11, -0.11, -0.24, -0.24, -0.24, 30.27, 0
169590, 169590582, -10.88, -0.11, -0.11, -0.23, -0.23, -0.23, 30.36, 0
169864, 169864580, -10.91, -0.11, -0.11, -0.26, -0.26, -0.26, 30.31, 0
170114, 170114580, -10.89, -0.11, -0.11, -0.24, -0.24, -0.24, 30.31, 0
170243, 170243583, -10.8, -0.11, -0.11, -0.24, -0.24, -0.24, 30.41, 0
170480, 170480582, -10.83, -0.11, -0.11, -0.23, -0.23, -0.23, 30.41, 0
170749, 170749580, -10.84, -0.11, -0.11, -0.25, -0.25, -0.25, 30.41, 0
0, 0, 0.0, 0.0, 0.0, 0.0, 0.0, 0.0, 0.0, 0
171242, 171242582, -10.9, -0.11, -0.11, -0.18, -0.18, -0.18, 30.36, 0
171388, 171388580, -10.83, -0.11, -0.11, -0.21, -0.21, -0.21, 30.41, 0
171639, 171639580, -10.85, -0.11, -0.11, -0.18, -0.18, -0.18, 30.36, 0
0, 0, 0.0, 0.0, 0.0, 0.0, 0.0, 0.0, 0.0, 0
172131, 172131582, -10.85, -0.11, -0.11, -0.25, -0.25, -0.25, 30.41, 0
172274, 172274575, -10.88, -0.11, -0.11, -0.22, -0.22, -0.22, 30.45, 0
172400, 172400575, -10.84, -0.11, -0.11, -0.21, -0.21, -0.21, 30.41, 0
172658, 172658575, -10.85, -0.11, -0.11, -0.21, -0.21, -0.21, 30.41, 0
172894, 172894580, -10.84, -0.11, -0.11, -0.17, -0.17, -0.17, 30.41, 0
173041, 173041586, -10.91, -0.11, -0.11, -0.23, -0.23, -0.23, 30.45, 0
173274, 173274580, -10.9, -0.11, -0.11, -0.29, -0.29, -0.29, 30.41, 0
173418, 173418586, -10.83, -0.11, -0.11, -0.22, -0.22, -0.22, 30.5, 0
173656, 173656579, -10.89, -0.11, -0.11, -0.26, -0.26, -0.26, 30.45, 0
173801, 173801586, -10.84, -0.11, -0.11, -0.2, -0.2, -0.2, 30.45, 0
174038, 174038579, -10.87, -0.11, -0.11, -0.24, -0.24, -0.24, 30.45, 0
174181, 174181584, -10.88, -0.11, -0.11, -0.27, -0.27, -0.27, 30.45, 0
174418, 174418582, -10.87, -0.11, -0.11, -0.15, -0.15, -0.15, 30.5, 0
174562, 174562576, -10.88, -0.11, -0.11, -0.21, -0.21, -0.21, 30.55, 0
174801, 174801579, -10.84, -0.11, -0.11, -0.28, -0.28, -0.28, 30.41, 0
174943, 174943586, -10.79, -0.11, -0.11, -0.22, -0.22, -0.22, 30.5, 0
175187, 175187577, -10.87, -0.11, -0.11, -0.21, -0.21, -0.21, 30.45, 0
175323, 175323580, -10.85, -0.11, -0.11, -0.19, -0.19, -0.19, 30.45, 0
175562, 175562579, -10.86, -0.11, -0.11, -0.09, -0.09, -0.09, 30.45, 0
175710, 175710586, -10.9, -0.11, -0.11, -0.18, -0.18, -0.18, 30.5, 0
175942, 175942580, -10.92, -0.11, -0.11, -0.21, -0.21, -0.21, 30.5, 0
176084, 176084576, -10.81, -0.11, -0.11, -0.16, -0.16, -0.16, 30.5, 0
176322, 176322580, -10.89, -0.11, -0.11, 0.0, 0.0, 0.0, 30.5, 0
176464, 176464586, -10.88, -0.11, -0.11, -0.2, -0.2, -0.2, 30.45, 0
176701, 176701579, -10.89, -0.11, -0.11, -0.09, -0.09, -0.09, 30.5, 0
176846, 176846585, -10.92, -0.11, -0.11, -0.1, -0.1, -0.1, 30.5, 0
177085, 177085579, -10.88, -0.11, -0.11, -0.15, -0.15, -0.15, 30.55, 0
177231, 177231575, -10.87, -0.11, -0.11, -0.24, -0.24, -0.24, 30.6, 0
177466, 177466580, -10.85, -0.11, -0.11, 0.0, 0.0, 0.0, 30.6, 0
177731, 177731580, -10.84, -0.11, -0.11, -0.21, -0.21, -0.21, 30.45, 0
0, 0, 0.0, 0.0, 0.0, 0.0, 0.0, 0.0, 0.0, 0
178217, 178217577, -10.88, -0.11, -0.11, -0.08, -0.08, -0.08, 30.55, 0
178359, 178359576, -10.81, -0.11, -0.11, -0.08, -0.08, -0.08, 30.55, 0
0, 0, 0.0, 0.0, 0.0, 0.0, 0.0, 0.0, 0.0, 0
0, 0, 0.0, 0.0, 0.0, 0.0, 0.0, 0.0, 0.0, 0
0, 0, 0.0, 0.0, 0.0, 0.0, 0.0, 0.0, 0.0, 0
0, 0, 0.0, 0.0, 0.0, 0.0, 0.0, 0.0, 0.0, 0
0, 0, 0.0, 0.0, 0.0, 0.0, 0.0, 0.0, 0.0, 0
0, 0, 0.0, 0.0, 0.0, 0.0, 0.0, 0.0, 0.0, 0
0, 0, 0.0, 0.0, 0.0, 0.0, 0.0, 0.0, 0.0, 0
1511, 1511577, -10.8, -0.11, -0.11, 0.04, 0.04, 0.04, 29.23, 0
1651, 1651586, -10.88, -0.11, -0.11, 0.02, 0.02, 0.02, 29.18, 0
1938, 1938583, -10.87, -0.11, -0.11, 0.0, 0.0, 0.0, 29.33, 0
0, 0, 0.0, 0.0, 0.0, 0.0, 0.0, 0.0, 0.0, 0
2370, 2370583, -10.84, -0.11, -0.11, -0.16, -0.16, -0.16, 29.23, 0
2508, 2508591, -10.86, -0.11, -0.11, -0.03, -0.03, -0.03, 29.28, 0
0, 0, 0.0, 0.0, 0.0, 0.0, 0.0, 0.0, 0.0, 0
2914, 2914319, -10.91, -0.11, -0.11, -0.17, -0.17, -0.17, 29.23, 0
3118, 3118583, -10.83, -0.11, -0.11, -0.17, -0.17, -0.17, 29.28, 0
0, 0, 0.0, 0.0, 0.0, 0.0, 0.0, 0.0, 0.0, 0
3546, 3546583, -10.82, -0.11, -0.11, -0.07, -0.07, -0.07, 29.28, 0
3687, 3687580, -10.87, -0.11, -0.11, -0.12, -0.12, -0.12, 29.18, 0
3977, 3977583, -10.86, -0.11, -0.11, -0.07, -0.07, -0.07, 29.33, 0
4117, 4117580, -10.84, -0.11, -0.11, -0.02, -0.02, -0.02, 29.18, 0
0, 0, 0.0, 0.0, 0.0, 0.0, 0.0, 0.0, 0.0, 0
4529, 4529587, -10.88, -0.11, -0.11, -0.07, -0.07, -0.07, 29.18, 0
4658, 4658580, -10.85, -0.11, -0.11, -0.07, -0.07, -0.07, 29.14, 0
0, 0, 0.0, 0.0, 0.0, 0.0, 0.0, 0.0, 0.0, 0
5163, 5163583, -10.85, -0.11, -0.11, -0.14, -0.14, -0.14, 29.14, 0
5304, 5304580, -10.84, -0.11, -0.11, -0.05, -0.05, -0.05, 29.18, 0
5593, 5593583, -10.53, -0.11, -0.11, -0.14, -0.14, -0.14, 29.18, 0
5731, 5731580, -10.91, -0.11, -0.11, -0.08, -0.08, -0.08, 29.14, 0
6021, 6021583, -10.73, -0.11, -0.11, -0.19, -0.19, -0.19, 29.23, 0
6159, 6159579, -10.83, -0.11, -0.11, -0.29, -0.29, -0.29, 29.14, 0
6353, 6353583, -10.76, -0.11, -0.11, -0.13, -0.13, -0.13, 29.14, 0
6503, 6503580, -10.62, -0.11, -0.11, -0.26, -0.26, -0.26, 29.18, 0
0, 0, 0.0, 0.0, 0.0, 0.0, 0.0, 0.0, 0.0, 0
0, 0, 0.0, 0.0, 0.0, 0.0, 0.0, 0.0, 0.0, 0
0, 0, 0.0, 0.0, 0.0, 0.0, 0.0, 0.0, 0.0, 0
0, 0, 0.0, 0.0, 0.0, 0.0, 0.0, 0.0, 0.0, 0
0, 0, 0.0, 0.0, 0.0, 0.0, 0.0, 0.0, 0.0, 0
0, 0, 0.0, 0.0, 0.0, 0.0, 0.0, 0.0, 0.0, 0
0, 0, 0.0, 0.0, 0.0, 0.0, 0.0, 0.0, 0.0, 0
1531, 1531582, -7.17, -0.07, -0.07, 0.03, 0.03, 0.03, 28.15, 0
1728, 1728577, -9.22, -0.09, -0.09, 0.03, 0.03, 0.03, 28.24, 0
2161, 2161582, -6.41, -0.06, -0.06, -0.11, -0.11, -0.11, 28.29, 0
2299, 2299579, -6.62, -0.07, -0.07, -0.11, -0.11, -0.11, 28.34, 0
2498, 2498577, -5.76, -0.06, -0.06, -0.13, -0.13, -0.13, 28.38, 0
2697, 2697582, -6.35, -0.06, -0.06, -0.18, -0.18, -0.18, 28.34, 0
2837, 2837591, -6.76, -0.07, -0.07, -0.15, -0.15, -0.15, 28.38, 0
3129, 3129582, -6.58, -0.07, -0.07, -0.16, -0.16, -0.16, 28.38, 0
3267, 3267579, -5.95, -0.06, -0.06, -0.23, -0.23, -0.23, 28.34, 0
3556, 3556582, -6.39, -0.06, -0.06, -0.1, -0.1, -0.1, 28.43, 0
3696, 3696580, -6.59, -0.07, -0.07, -0.18, -0.18, -0.18, 28.38, 0
3985, 3985583, -6.16, -0.06, -0.06, -0.15, -0.15, -0.15, 28.43, 0
0, 0, 0.0, 0.0, 0.0, 0.0, 0.0, 0.0, 0.0, 0
4416, 4416582, -6.5, -0.07, -0.07, -0.28, -0.28, -0.28, 28.48, 0
0, 0, 0.0, 0.0, 0.0, 0.0, 0.0, 0.0, 0.0, 0
4851, 4851582, -6.88, -0.07, -0.07, -0.16, -0.16, -0.16, 28.43, 0
4989, 4989590, -6.66, -0.07, -0.07, -0.13, -0.13, -0.13, 28.48, 0
5189, 5189577, -6.76, -0.07, -0.07, -0.14, -0.14, -0.14, 28.57, 0
5386, 5386582, -6.76, -0.07, -0.07, -0.19, -0.19, -0.19, 28.38, 0
5532, 5532579, -6.81, -0.07, -0.07, -0.17, -0.17, -0.17, 28.43, 0
5822, 5822582, -6.79, -0.07, -0.07, -0.24, -0.24, -0.24, 28.43, 0
5960, 5960579, -6.87, -0.07, -0.07, -0.21, -0.21, -0.21, 28.53, 0
6250, 6250582, -6.7, -0.07, -0.07, -0.18, -0.18, -0.18, 28.53, 0
6390, 6390590, -6.85, -0.07, -0.07, -0.21, -0.21, -0.21, 28.48, 0
6590, 6590577, -6.89, -0.07, -0.07, -0.18, -0.18, -0.18, 28.57, 0
6789, 6789583, -7.01, -0.07, -0.07, -0.14, -0.14, -0.14, 28.48, 0
6928, 6928580, -6.9, -0.07, -0.07, -0.2, -0.2, -0.2, 28.53, 0
7218, 7218586, -6.76, -0.07, -0.07, -0.06, -0.06, -0.06, 28.43, 0
0, 0, 0.0, 0.0, 0.0, 0.0, 0.0, 0.0, 0.0, 0
7648, 7648582, -6.48, -0.06, -0.06, -0.17, -0.17, -0.17, 28.48, 0
7788, 7788579, -6.55, -0.07, -0.07, -0.19, -0.19, -0.19, 28.53, 0
8077, 8077582, -7.73, -0.08, -0.08, -0.21, -0.21, -0.21, 28.62, 0
0, 0, 0.0, 0.0, 0.0, 0.0, 0.0, 0.0, 0.0, 0
8510, 8510583, -7.63, -0.08, -0.08, -0.32, -0.32, -0.32, 28.38, 0
8650, 8650580, -7.5, -0.07, -0.07, -0.31, -0.31, -0.31, 28.57, 0
0, 0, 0.0, 0.0, 0.0, 0.0, 0.0, 0.0, 0.0, 0
9065, 9065577, -6.1, -0.06, -0.06, -0.21, -0.21, -0.21, 28.62, 0
9263, 9263582, -7.69, -0.08, -0.08, -0.12, -0.12, -0.12, 28.53, 0
0, 0, 0.0, 0.0, 0.0, 0.0, 0.0, 0.0, 0.0, 0
9694, 9694586, -5.21, -0.05, -0.05, -0.08, -0.08, -0.08, 28.67, 0
9835, 9835579, -6.19, -0.06, -0.06, -0.23, -0.23, -0.23, 28.48, 0
10033, 10033577, -6.88, -0.07, -0.07, -0.12, -0.12, -0.12, 28.53, 0
10234, 10234582, -4.82, -0.05, -0.05, -0.11, -0.11, -0.11, 28.48, 0
10374, 10374580, -4.88, -0.05, -0.05, -0.05, -0.05, -0.05, 28.57, 0
0, 0, 0.0, 0.0, 0.0, 0.0, 0.0, 0.0, 0.0, 0
10876, 10876583, -4.21, -0.04, -0.04, -0.06, -0.06, -0.06, 28.43, 0
11014, 11014580, -4.31, -0.04, -0.04, -0.1, -0.1, -0.1, 28.53, 0
0, 0, 0.0, 0.0, 0.0, 0.0, 0.0, 0.0, 0.0, 0
11429, 11429577, -4.36, -0.04, -0.04, -0.24, -0.24, -0.24, 28.43, 0
11556, 11556579, -6.8, -0.07, -0.07, -0.11, -0.11, -0.11, 28.57, 0
11850, 11850582, -5.3, -0.05, -0.05, -0.17, -0.17, -0.17, 28.43, 0
11988, 11988580, -4.9, -0.05, -0.05, -0.16, -0.16, -0.16, 28.48, 0
12187, 12187587, -7.45, -0.07, -0.07, -0.08, -0.08, -0.08, 28.53, 0
12386, 12386582, -6.28, -0.06, -0.06, -0.16, -0.16, -0.16, 28.38, 0
12526, 12526580, -5.76, -0.06, -0.06, -0.15, -0.15, -0.15, 28.53, 0
12816, 12816582, -9.59, -0.1, -0.1, -0.16, -0.16, -0.16, 28.53, 0
12954, 12954580, -7.9, -0.08, -0.08, -0.19, -0.19, -0.19, 28.38, 0
0, 0, 0.0, 0.0, 0.0, 0.0, 0.0, 0.0, 0.0, 0
13400, 13400577, -8.26, -0.08, -0.08, -0.05, -0.05, -0.05, 28.48, 0
13601, 13601577, -8.03, -0.08, -0.08, -0.09, -0.09, -0.09, 28.34, 0
13800, 13800582, -8.11, -0.08, -0.08, -0.21, -0.21, -0.21, 28.62, 0
0, 0, 0.0, 0.0, 0.0, 0.0, 0.0, 0.0, 0.0, 0
14232, 14232582, -8.56, -0.09, -0.09, -0.24, -0.24, -0.24, 28.48, 0
14370, 14370580, -8.73, -0.09, -0.09, -0.15, -0.15, -0.15, 28.53, 0
14587, 14587581, -9.1, -0.09, -0.09, -0.15, -0.15, -0.15, 28.43, 0
14800, 14800580, -9.12, -0.09, -0.09, -0.09, -0.09, -0.09, 28.43, 0
0, 0, 0.0, 0.0, 0.0, 0.0, 0.0, 0.0, 0.0, 0
15205, 15205586, -9.24, -0.09, -0.09, -0.23, -0.23, -0.23, 28.34, 0
15342, 15342579, -9.68, -0.1, -0.1, -0.1, -0.1, -0.1, 28.29, 0
0, 0, 0.0, 0.0, 0.0, 0.0, 0.0, 0.0, 0.0, 0
15774, 15774580, -9.83, -0.1, -0.1, -0.24, -0.24, -0.24, 28.24, 0
15989, 15989580, -8.48, -0.08, -0.08, -0.13, -0.13, -0.13, 28.2, 0
16278, 16278586, -8.01, -0.08, -0.08, -0.14, -0.14, -0.14, 28.24, 0
16416, 16416592, -10.11, -0.1, -0.1, -0.16, -0.16, -0.16, 28.1, 0
16618, 16618577, -8.77, -0.09, -0.09, -0.08, -0.08, -0.08, 28.2, 0
16816, 16816582, -9.04, -0.09, -0.09, -0.14, -0.14, -0.14, 28.2, 0
16956, 16956579, -12.12, -0.12, -0.12, -0.17, -0.17, -0.17, 28.15, 0
17245, 17245582, -8.39, -0.08, -0.08, -0.2, -0.2, -0.2, 28.15, 0
17383, 17383579, -9.76, -0.1, -0.1, -0.17, -0.17, -0.17, 28.1, 0
17583, 17583577, -9.06, -0.09, -0.09, -0.2, -0.2, -0.2, 28.1, 0
17783, 17783582, -9.01, -0.09, -0.09, -0.2, -0.2, -0.2, 28.1, 0
17920, 17920580, -10.88, -0.11, -0.11, -0.21, -0.21, -0.21, 28.05, 0
18209, 18209582, -8.17, -0.08, -0.08, -0.27, -0.27, -0.27, 28.05, 0
0, 0, 0.0, 0.0, 0.0, 0.0, 0.0, 0.0, 0.0, 0
18640, 18640583, -9.53, -0.1, -0.1, -0.17, -0.17, -0.17, 28.05, 0
0, 0, 0.0, 0.0, 0.0, 0.0, 0.0, 0.0, 0.0, 0
19068, 19068583, -9.74, -0.1, -0.1, -0.16, -0.16, -0.16, 28.1, 0
19210, 19210579, -10.69, -0.11, -0.11, -0.22, -0.22, -0.22, 28.15, 0
19501, 19501583, -9.95, -0.1, -0.1, -0.18, -0.18, -0.18, 28.1, 0
19644, 19644579, -9.56, -0.1, -0.1, -0.26, -0.26, -0.26, 28.2, 0
19933, 19933582, -9.9, -0.1, -0.1, -0.26, -0.26, -0.26, 28.1, 0
20073, 20073580, -10.35, -0.1, -0.1, -0.22, -0.22, -0.22, 28.15, 0
20365, 20365582, -9.23, -0.09, -0.09, -0.25, -0.25, -0.25, 28.15, 0
20504, 20504689, -9.62, -0.1, -0.1, -0.25, -0.25, -0.25, 28.05, 0
20797, 20797582, -10.19, -0.1, -0.1, -0.21, -0.21, -0.21, 28.1, 0
20934, 20934591, -9.72, -0.1, -0.1, -0.22, -0.22, -0.22, 28.05, 0
21224, 21224582, -9.62, -0.1, -0.1, -0.25, -0.25, -0.25, 28.1, 0
0, 0, 0.0, 0.0, 0.0, 0.0, 0.0, 0.0, 0.0, 0
21653, 21653582, -9.43, -0.09, -0.09, -0.24, -0.24, -0.24, 27.96, 0
21794, 21794586, -9.69, -0.1, -0.1, -0.27, -0.27, -0.27, 27.91, 0
22087, 22087582, -9.52, -0.1, -0.1, -0.26, -0.26, -0.26, 28.05, 0
22225, 22225579, -9.62, -0.1, -0.1, -0.22, -0.22, -0.22, 27.96, 0
22516, 22516582, -10.31, -0.1, -0.1, -0.12, -0.12, -0.12, 28.05, 0
0, 0, 0.0, 0.0, 0.0, 0.0, 0.0, 0.0, 0.0, 0
22980, 22980577, -8.85, -0.09, -0.09, -0.34, -0.34, -0.34, 28.01, 0
23182, 23182582, -8.83, -0.09, -0.09, -0.32, -0.32, -0.32, 28.01, 0
23322, 23322580, -10.23, -0.1, -0.1, -0.23, -0.23, -0.23, 28.01, 0
23610, 23610583, -11.05, -0.11, -0.11, -0.21, -0.21, -0.21, 27.96, 0
23751, 23751580, -9.47, -0.09, -0.09, -0.21, -0.21, -0.21, 28.01, 0
23949, 23949577, -10.97, -0.11, -0.11, -0.19, -0.19, -0.19, 28.1, 0
24149, 24149582, -9.41, -0.09, -0.09, -0.16, -0.16, -0.16, 28.01, 0
24289, 24289580, -10.24, -0.1, -0.1, -0.11, -0.11, -0.11, 28.1, 0
24580, 24580582, -10.37, -0.1, -0.1, -0.25, -0.25, -0.25, 27.96, 0
0, 0, 0.0, 0.0, 0.0, 0.0, 0.0, 0.0, 0.0, 0
25012, 25012582, -9.48, -0.09, -0.09, -0.16, -0.16, -0.16, 27.91, 0
25150, 25150579, -11.04, -0.11, -0.11, -0.24, -0.24, -0.24, 27.96, 0
25439, 25439582, -11.02, -0.11, -0.11, -0.26, -0.26, -0.26, 28.01, 0
0, 0, 0.0, 0.0, 0.0, 0.0, 0.0, 0.0, 0.0, 0
25869, 25869586, -10.29, -0.1, -0.1, -0.11, -0.11, -0.11, 27.96, 0
26009, 26009590, -10.84, -0.11, -0.11, -0.11, -0.11, -0.11, 27.91, 0
26301, 26301582, -11.25, -0.11, -0.11, -0.22, -0.22, -0.22, 27.91, 0
26439, 26439580, -10.53, -0.11, -0.11, -0.29, -0.29, -0.29, 28.05, 0
26553, 26553580, -10.85, -0.11, -0.11, -0.15, -0.15, -0.15, 27.96, 0
26846, 26846577, -10.35, -0.1, -0.1, -0.13, -0.13, -0.13, 27.96, 0
26969, 26969580, -10.09, -0.1, -0.1, -0.17, -0.17, -0.17, 28.01, 0
27186, 27186580, -10.44, -0.1, -0.1, -0.2, -0.2, -0.2, 27.87, 0
27479, 27479582, -10.61, -0.11, -0.11, -0.24, -0.24, -0.24, 27.91, 0
27620, 27620580, -10.69, -0.11, -0.11, -0.18, -0.18, -0.18, 27.87, 0
27911, 27911582, -10.88, -0.11, -0.11, -0.15, -0.15, -0.15, 27.87, 0
0, 0, 0.0, 0.0, 0.0, 0.0, 0.0, 0.0, 0.0, 0
28344, 28344582, -10.83, -0.11, -0.11, -0.15, -0.15, -0.15, 27.73, 0
28482, 28482586, -10.79, -0.11, -0.11, -0.2, -0.2, -0.2, 27.58, 0
28770, 28770582, -10.8, -0.11, -0.11, -0.24, -0.24, -0.24, 27.58, 0
28908, 28908580, -10.76, -0.11, -0.11, -0.16, -0.16, -0.16, 27.63, 0
29109, 29109584, -10.85, -0.11, -0.11, -0.21, -0.21, -0.21, 27.54, 0
29307, 29307582, -10.82, -0.11, -0.11, -0.17, -0.17, -0.17, 27.44, 0
29444, 29444585, -10.82, -0.11, -0.11, -0.2, -0.2, -0.2, 27.4, 0
29738, 29738582, -10.85, -0.11, -0.11, -0.26, -0.26, -0.26, 27.3, 0
29879, 29879587, -10.92, -0.11, -0.11, -0.19, -0.19, -0.19, 27.3, 0
30167, 30167582, -10.92, -0.11, -0.11, -0.26, -0.26, -0.26, 27.3, 0
30307, 30307580, -10.82, -0.11, -0.11, -0.24, -0.24, -0.24, 27.3, 0
30600, 30600582, -10.88, -0.11, -0.11, -0.29, -0.29, -0.29, 27.16, 0
30737, 30737586, -10.82, -0.11, -0.11, -0.14, -0.14, -0.14, 27.16, 0
30940, 30940587, -10.85, -0.11, -0.11, -0.09, -0.09, -0.09, 27.11, 0
31137, 31137582, -10.88, -0.11, -0.11, -0.26, -0.26, -0.26, 27.11, 0
31277, 31277580, -10.81, -0.11, -0.11, -0.23, -0.23, -0.23, 27.11, 0
31568, 31568582, -10.83, -0.11, -0.11, -0.21, -0.21, -0.21, 26.97, 0
31708, 31708580, -10.85, -0.11, -0.11, -0.21, -0.21, -0.21, 27.02, 0
31997, 31997583, -10.83, -0.11, -0.11, -0.15, -0.15, -0.15, 27.02, 0
0, 0, 0.0, 0.0, 0.0, 0.0, 0.0, 0.0, 0.0, 0
32427, 32427582, -10.85, -0.11, -0.11, -0.18, -0.18, -0.18, 26.88, 0
0, 0, 0.0, 0.0, 0.0, 0.0, 0.0, 0.0, 0.0, 0
32861, 32861582, -10.91, -0.11, -0.11, -0.2, -0.2, -0.2, 26.93, 0
32999, 32999590, -10.85, -0.11, -0.11, -0.1, -0.1, -0.1, 26.97, 0
33290, 33290582, -10.85, -0.11, -0.11, -0.17, -0.17, -0.17, 26.97, 0
0, 0, 0.0, 0.0, 0.0, 0.0, 0.0, 0.0, 0.0, 0
33648, 33648586, -10.86, -0.11, -0.11, -0.13, -0.13, -0.13, 27.02, 0
33864, 33864586, -10.83, -0.11, -0.11, -0.24, -0.24, -0.24, 26.97, 0
34154, 34154582, -10.82, -0.11, -0.11, -0.23, -0.23, -0.23, 26.97, 0
0, 0, 0.0, 0.0, 0.0, 0.0, 0.0, 0.0, 0.0, 0
34587, 34587583, -10.81, -0.11, -0.11, -0.24, -0.24, -0.24, 26.93, 0
0, 0, 0.0, 0.0, 0.0, 0.0, 0.0, 0.0, 0.0, 0
35019, 35019582, -10.88, -0.11, -0.11, -0.14, -0.14, -0.14, 26.88, 0
35157, 35157586, -10.86, -0.11, -0.11, -0.11, -0.11, -0.11, 27.02, 0
35447, 35447582, -10.84, -0.11, -0.11, -0.2, -0.2, -0.2, 26.88, 0
0, 0, 0.0, 0.0, 0.0, 0.0, 0.0, 0.0, 0.0, 0
35875, 35875582, -10.87, -0.11, -0.11, -0.2, -0.2, -0.2, 27.11, 0
0, 0, 0.0, 0.0, 0.0, 0.0, 0.0, 0.0, 0.0, 0
36309, 36309582, -10.82, -0.11, -0.11, -0.05, -0.05, -0.05, 27.07, 0
36447, 36447585, -10.79, -0.11, -0.11, -0.21, -0.21, -0.21, 27.11, 0
36734, 36734582, -10.91, -0.11, -0.11, -0.22, -0.22, -0.22, 27.07, 0
36877, 36877586, -10.82, -0.11, -0.11, -0.22, -0.22, -0.22, 27.11, 0
37165, 37165586, -10.93, -0.11, -0.11, -0.23, -0.23, -0.23, 27.16, 0
37306, 37306591, -10.84, -0.11, -0.11, -0.18, -0.18, -0.18, 27.02, 0
37596, 37596582, -10.87, -0.11, -0.11, -0.16, -0.16, -0.16, 27.11, 0
0, 0, 0.0, 0.0, 0.0, 0.0, 0.0, 0.0, 0.0, 0
37958, 37958580, -10.89, -0.11, -0.11, -0.21, -0.21, -0.21, 27.07, 0
0, 0, 0.0, 0.0, 0.0, 0.0, 0.0, 0.0, 0.0, 0
38460, 38460582, -10.88, -0.11, -0.11, -0.12, -0.12, -0.12, 27.11, 0
38601, 38601580, -10.88, -0.11, -0.11, -0.13, -0.13, -0.13, 27.16, 0
38894, 38894582, -10.81, -0.11, -0.11, -0.24, -0.24, -0.24, 27.16, 0
39032, 39032580, -10.83, -0.11, -0.11, -0.14, -0.14, -0.14, 27.11, 0
39321, 39321582, -10.85, -0.11, -0.11, -0.24, -0.24, -0.24, 27.16, 0
0, 0, 0.0, 0.0, 0.0, 0.0, 0.0, 0.0, 0.0, 0
39754, 39754582, -10.82, -0.11, -0.11, -0.26, -0.26, -0.26, 27.11, 0
0, 0, 0.0, 0.0, 0.0, 0.0, 0.0, 0.0, 0.0, 0
40183, 40183582, -10.82, -0.11, -0.11, -0.24, -0.24, -0.24, 27.07, 0
40325, 40325582, -10.89, -0.11, -0.11, -0.22, -0.22, -0.22, 27.07, 0
40614, 40614582, -10.83, -0.11, -0.11, -0.26, -0.26, -0.26, 27.11, 0
0, 0, 0.0, 0.0, 0.0, 0.0, 0.0, 0.0, 0.0, 0
41045, 41045582, -10.88, -0.11, -0.11, -0.25, -0.25, -0.25, 26.97, 0
41478, 41478582, -10.88, -0.11, -0.11, -0.26, -0.26, -0.26, 26.83, 0
0, 0, 0.0, 0.0, 0.0, 0.0, 0.0, 0.0, 0.0, 0
41907, 41907586, -10.91, -0.11, -0.11, -0.28, -0.28, -0.28, 26.88, 0
42045, 42045579, -10.85, -0.11, -0.11, -0.22, -0.22, -0.22, 26.93, 0
0, 0, 0.0, 0.0, 0.0, 0.0, 0.0, 0.0, 0.0, 0
42461, 42461577, -10.84, -0.11, -0.11, -0.23, -0.23, -0.23, 26.93, 0
42586, 42586586, -10.89, -0.11, -0.11, -0.22, -0.22, -0.22, 26.74, 0
0, 0, 0.0, 0.0, 0.0, 0.0, 0.0, 0.0, 0.0, 0
43094, 43094582, -10.91, -0.11, -0.11, -0.16, -0.16, -0.16, 26.78, 0
43231, 43231586, -10.83, -0.11, -0.11, -0.28, -0.28, -0.28, 26.83, 0
43445, 43445585, -10.85, -0.11, -0.11, -0.18, -0.18, -0.18, 26.83, 0
43570, 43570587, -10.94, -0.11, -0.11, -0.27, -0.27, -0.27, 26.88, 0
43784, 43784580, -10.84, -0.11, -0.11, -0.28, -0.28, -0.28, 26.78, 0
44075, 44075582, -10.86, -0.11, -0.11, -0.27, -0.27, -0.27, 26.69, 0
44213, 44213580, -10.83, -0.11, -0.11, -0.28, -0.28, -0.28, 26.74, 0
44502, 44502379, -10.85, -0.11, -0.11, -0.29, -0.29, -0.29, 26.74, 0
0, 0, 0.0, 0.0, 0.0, 0.0, 0.0, 0.0, 0.0, 0
44937, 44937585, -10.85, -0.11, -0.11, -0.24, -0.24, -0.24, 26.6, 0
45078, 45078580, -10.87, -0.11, -0.11, -0.25, -0.25, -0.25, 26.64, 0
45368, 45368582, -10.84, -0.11, -0.11, -0.28, -0.28, -0.28, 26.45, 0
0, 0, 0.0, 0.0, 0.0, 0.0, 0.0, 0.0, 0.0, 0
45798, 45798585, -10.87, -0.11, -0.11, -0.3, -0.3, -0.3, 26.6, 0
0, 0, 0.0, 0.0, 0.0, 0.0, 0.0, 0.0, 0.0, 0
46225, 46225582, -10.84, -0.11, -0.11, -0.27, -0.27, -0.27, 26.45, 0
46366, 46366588, -10.89, -0.11, -0.11, -0.31, -0.31, -0.31, 26.5, 0
46588, 46588587, -10.83, -0.11, -0.11, -0.22, -0.22, -0.22, 26.5, 0
46801, 46801587, -10.91, -0.11, -0.11, -0.25, -0.25, -0.25, 26.45, 0
47091, 47091585, -10.88, -0.11, -0.11, -0.28, -0.28, -0.28, 26.45, 0
0, 0, 0.0, 0.0, 0.0, 0.0, 0.0, 0.0, 0.0, 0
47524, 47524582, -10.86, -0.11, -0.11, -0.27, -0.27, -0.27, 26.45, 0
47664, 47664591, -10.85, -0.11, -0.11, -0.29, -0.29, -0.29, 26.36, 0
47955, 47955585, -10.82, -0.11, -0.11, -0.3, -0.3, -0.3, 26.36, 0
48094, 48094587, -10.89, -0.11, -0.11, -0.3, -0.3, -0.3, 26.41, 0
48295, 48295585, -10.82, -0.11, -0.11, -0.25, -0.25, -0.25, 26.41, 0
48495, 48495585, -10.83, -0.11, -0.11, -0.26, -0.26, -0.26, 26.36, 0
48634, 48634587, -10.81, -0.11, -0.11, -0.26, -0.26, -0.26, 26.36, 0
48924, 48924585, -10.88, -0.11, -0.11, -0.3, -0.3, -0.3, 26.27, 0
0, 0, 0.0, 0.0, 0.0, 0.0, 0.0, 0.0, 0.0, 0
49352, 49352586, -10.83, -0.11, -0.11, -0.28, -0.28, -0.28, 26.31, 0
49492, 49492588, -10.82, -0.11, -0.11, -0.27, -0.27, -0.27, 26.27, 0
49783, 49783585, -10.83, -0.11, -0.11, -0.27, -0.27, -0.27, 26.27, 0
0, 0, 0.0, 0.0, 0.0, 0.0, 0.0, 0.0, 0.0, 0
50214, 50214585, -10.96, -0.11, -0.11, -0.22, -0.22, -0.22, 26.22, 0
0, 0, 0.0, 0.0, 0.0, 0.0, 0.0, 0.0, 0.0, 0
50645, 50645584, -10.82, -0.11, -0.11, -0.28, -0.28, -0.28, 26.13, 0
50783, 50783578, -10.84, -0.11, -0.11, -0.31, -0.31, -0.31, 26.17, 0
51072, 51072584, -10.9, -0.11, -0.11, -0.3, -0.3, -0.3, 26.27, 0
51210, 51210579, -10.87, -0.11, -0.11, -0.28, -0.28, -0.28, 26.17, 0
51499, 51499216, -10.87, -0.11, -0.11, -0.27, -0.27, -0.27, 26.22, 0
0, 0, 0.0, 0.0, 0.0, 0.0, 0.0, 0.0, 0.0, 0
51934, 51934584, -10.85, -0.11, -0.11, -0.29, -0.29, -0.29, 26.27, 0
52074, 52074586, -10.9, -0.11, -0.11, -0.27, -0.27, -0.27, 26.22, 0
52363, 52363584, -10.9, -0.11, -0.11, -0.26, -0.26, -0.26, 26.31, 0
52500, 52500804, -10.91, -0.11, -0.11, -0.29, -0.29, -0.29, 26.17, 0
0, 0, 0.0, 0.0, 0.0, 0.0, 0.0, 0.0, 0.0, 0
52917, 52917584, -10.86, -0.11, -0.11, -0.22, -0.22, -0.22, 26.13, 0
53040, 53040586, -10.85, -0.11, -0.11, -0.3, -0.3, -0.3, 26.17, 0
0, 0, 0.0, 0.0, 0.0, 0.0, 0.0, 0.0, 0.0, 0
53664, 53664584, -10.86, -0.11, -0.11, -0.31, -0.31, -0.31, 26.17, 0
53804, 53804578, -10.86, -0.11, -0.11, -0.28, -0.28, -0.28, 26.13, 0
54096, 54096584, -10.88, -0.11, -0.11, -0.26, -0.26, -0.26, 26.17, 0
54234, 54234579, -10.88, -0.11, -0.11, -0.28, -0.28, -0.28, 26.27, 0
