Time (ms), Time (us), accX, accY, accZ, gyroX, gyroY, gyroZ, tempC, Packet Error
126942, 126942566, -0.77, -0.01, -0.01, -0.2, -0.2, -0.2, 28.48, 0
127153, 127153562, -0.77, -0.01, -0.01, -0.22, -0.22, -0.22, 28.48, 0
127290, 127290561, -0.73, -0.01, -0.01, -0.18, -0.18, -0.18, 28.53, 0
127504, 127504568, -0.79, -0.01, -0.01, -0.16, -0.16, -0.16, 28.57, 0
127798, 127798562, -0.73, -0.01, -0.01, -0.1, -0.1, -0.1, 28.62, 0
127935, 127935569, -0.84, -0.01, -0.01, -0.2, -0.2, -0.2, 28.57, 0
128230, 128230562, -0.73, -0.01, -0.01, -0.18, -0.18, -0.18, 28.57, 0
128371, 128371561, -0.79, -0.01, -0.01, -0.13, -0.13, -0.13, 28.62, 0
128582, 128582561, -0.8, -0.01, -0.01, -0.12, -0.12, -0.12, 28.53, 0
128872, 128872562, -0.74, -0.01, -0.01, -0.22, -0.22, -0.22, 28.53, 0
129078, 129078566, -0.8, -0.01, -0.01, -0.08, -0.08, -0.08, 28.57, 0
129216, 129216569, -0.87, -0.01, -0.01, -0.22, -0.22, -0.22, 28.57, 0
129511, 129511562, -0.69, -0.01, -0.01, -0.17, -0.17, -0.17, 28.57, 0
129651, 129651561, -0.78, -0.01, -0.01, -0.09, -0.09, -0.09, 28.53, 0
129862, 129862561, -0.84, -0.01, -0.01, -0.17, -0.17, -0.17, 28.57, 0
130078, 130078570, -0.78, -0.01, -0.01, -0.15, -0.15, -0.15, 28.57, 0
130367, 130367562, -0.77, -0.01, -0.01, -0.07, -0.07, -0.07, 28.57, 0
130507, 130507572, -0.85, -0.01, -0.01, -0.24, -0.24, -0.24, 28.48, 0
130720, 130720561, -0.73, -0.01, -0.01, -0.23, -0.23, -0.23, 28.53, 0
131007, 131007562, -0.77, -0.01, -0.01, -0.17, -0.17, -0.17, 28.53, 0
131152, 131152561, -0.77, -0.01, -0.01, -0.14, -0.14, -0.14, 28.57, 0
131362, 131362566, -0.75, -0.01, -0.01, -0.26, -0.26, -0.26, 28.62, 0
131654, 131654562, -0.85, -0.01, -0.01, -0.17, -0.17, -0.17, 28.57, 0
131794, 131794566, -0.83, -0.01, -0.01, -0.25, -0.25, -0.25, 28.62, 0
132007, 132007569, -0.79, -0.01, -0.01, -0.16, -0.16, -0.16, 28.67, 0
132217, 132217566, -0.82, -0.01, -0.01, -0.19, -0.19, -0.19, 28.57, 0
132433, 132433570, -0.82, -0.01, -0.01, -0.13, -0.13, -0.13, 28.57, 0
132643, 132643566, -0.79, -0.01, -0.01, -0.19, -0.19, -0.19, 28.62, 0
132937, 132937562, -0.81, -0.01, -0.01, -0.2, -0.2, -0.2, 28.71, 0
133079, 133079561, -0.74, -0.01, -0.01, -0.16, -0.16, -0.16, 28.67, 0
133368, 133368562, -0.79, -0.01, -0.01, -0.21, -0.21, -0.21, 28.62, 0
133506, 133506570, -0.84, -0.01, -0.01, -0.17, -0.17, -0.17, 28.57, 0
133720, 133720561, -0.77, -0.01, -0.01, -0.19, -0.19, -0.19, 28.67, 0
133937, 133937570, -0.77, -0.01, -0.01, -0.17, -0.17, -0.17, 28.62, 0
134223, 134223562, -0.88, -0.01, -0.01, -0.26, -0.26, -0.26, 28.62, 0
134363, 134363570, -0.87, -0.01, -0.01, -0.21, -0.21, -0.21, 28.67, 0
134577, 134577561, -0.73, -0.01, -0.01, -0.22, -0.22, -0.22, 28.67, 0
134868, 134868562, -0.71, -0.01, -0.01, -0.15, -0.15, -0.15, 28.67, 0
135014, 135014567, -0.88, -0.01, -0.01, -0.18, -0.18, -0.18, 28.62, 0
135304, 135304562, -0.9, -0.01, -0.01, -0.18, -0.18, -0.18, 28.62, 0
135441, 135441568, -0.79, -0.01, -0.01, -0.12, -0.12, -0.12, 28.67, 0
135732, 135732562, -0.82, -0.01, -0.01, -0.21, -0.21, -0.21, 28.67, 0
135873, 135873570, -0.84, -0.01, -0.01, -0.08, -0.08, -0.08, 28.62, 0
136090, 136090561, -0.7, -0.01, -0.01, -0.19, -0.19, -0.19, 28.67, 0
136300, 136300561, -0.69, -0.01, -0.01, -0.2, -0.2, -0.2, 28.62, 0
136595, 136595562, -0.83, -0.01, -0.01, -0.17, -0.17, -0.17, 28.62, 0
136734, 136734570, -0.8, -0.01, -0.01, -0.2, -0.2, -0.2, 28.76, 0
136946, 136946568, -0.79, -0.01, -0.01, -0.19, -0.19, -0.19, 28.67, 0
137237, 137237562, -0.74, -0.01, -0.01, -0.23, -0.23, -0.23, 28.67, 0
137377, 137377561, -0.76, -0.01, -0.01, -0.1, -0.1, -0.1, 28.71, 0
137589, 137589561, -0.74, -0.01, -0.01, -0.19, -0.19, -0.19, 28.57, 0
137804, 137804566, -0.83, -0.01, -0.01, -0.18, -0.18, -0.18, 28.67, 0
138023, 138023566, -0.88, -0.01, -0.01, -0.17, -0.17, -0.17, 28.67, 0
138238, 138238561, -0.75, -0.01, -0.01, -0.17, -0.17, -0.17, 28.57, 0
138449, 138449568, -0.75, -0.01, -0.01, -0.22, -0.22, -0.22, 28.76, 0
138661, 138661570, -0.82, -0.01, -0.01, -0.22, -0.22, -0.22, 28.71, 0
138953, 138953562, -0.87, -0.01, -0.01, -0.28, -0.28, -0.28, 28.62, 0
139097, 139097561, -0.72, -0.01, -0.01, -0.23, -0.23, -0.23, 28.67, 0
139309, 139309566, -0.82, -0.01, -0.01, -0.27, -0.27, -0.27, 28.62, 0
139521, 139521567, -0.95, -0.01, -0.01, -0.26, -0.26, -0.26, 28.71, 0
139736, 139736561, -0.77, -0.01, -0.01, -0.25, -0.25, -0.25, 28.71, 0
139946, 139946561, -0.7, -0.01, -0.01, -0.28, -0.28, -0.28, 28.67, 0
140242, 140242562, -0.92, -0.01, -0.01, -0.11, -0.11, -0.11, 28.67, 0
140383, 140383570, -0.81, -0.01, -0.01, -0.22, -0.22, -0.22, 28.71, 0
140594, 140594566, -0.8, -0.01, -0.01, -0.11, -0.11, -0.11, 28.71, 0
140888, 140888562, -0.78, -0.01, -0.01, -0.28, -0.28, -0.28, 28.67, 0
141033, 141033567, -0.85, -0.01, -0.01, -0.15, -0.15, -0.15, 28.67, 0
141323, 141323562, -0.89, -0.01, -0.01, -0.19, -0.19, -0.19, 28.62, 0
141460, 141460569, -0.84, -0.01, -0.01, -0.28, -0.28, -0.28, 28.67, 0
141674, 141674561, -0.75, -0.01, -0.01, -0.3, -0.3, -0.3, 28.71, 0
141892, 141892574, -0.78, -0.01, -0.01, -0.18, -0.18, -0.18, 28.62, 0
142181, 142181562, -0.88, -0.01, -0.01, -0.23, -0.23, -0.23, 28.62, 0
142322, 142322568, -0.83, -0.01, -0.01, -0.16, -0.16, -0.16, 28.67, 0
142539, 142539568, -0.85, -0.01, -0.01, -0.17, -0.17, -0.17, 28.67, 0
142825, 142825562, -0.7, -0.01, -0.01, -0.2, -0.2, -0.2, 28.76, 0
142966, 142966561, -0.76, -0.01, -0.01, -0.15, -0.15, -0.15, 28.71, 0
143181, 143181570, -0.75, -0.01, -0.01, -0.21, -0.21, -0.21, 28.71, 0
143473, 143473562, -0.78, -0.01, -0.01, -0.17, -0.17, -0.17, 28.62, 0
143613, 143613561, -0.76, -0.01, -0.01, -0.21, -0.21, -0.21, 28.76, 0
143827, 143827565, -0.84, -0.01, -0.01, -0.18, -0.18, -0.18, 28.71, 0
144043, 144043566, -0.74, -0.01, -0.01, -0.16, -0.16, -0.16, 28.81, 0
144330, 144330562, -0.91, -0.01, -0.01, -0.19, -0.19, -0.19, 28.71, 0
144469, 144469569, -0.8, -0.01, -0.01, -0.27, -0.27, -0.27, 28.76, 0
144683, 144683568, -0.74, -0.01, -0.01, -0.2, -0.2, -0.2, 28.67, 0
144895, 144895561, -0.77, -0.01, -0.01, -0.19, -0.19, -0.19, 28.71, 0
145187, 145187562, -0.8, -0.01, -0.01, -0.21, -0.21, -0.21, 28.76, 0
145328, 145328566, -0.88, -0.01, -0.01, -0.07, -0.07, -0.07, 28.71, 0
145541, 145541566, -0.79, -0.01, -0.01, -0.23, -0.23, -0.23, 28.76, 0
145832, 145832562, -0.76, -0.01, -0.01, -0.21, -0.21, -0.21, 28.81, 0
145971, 145971923, -0.73, -0.01, -0.01, -0.26, -0.26, -0.26, 28.76, 0
146186, 146186566, -0.81, -0.01, -0.01, -0.13, -0.13, -0.13, 28.71, 0
146478, 146478562, -0.84, -0.01, -0.01, -0.24, -0.24, -0.24, 28.76, 0
146619, 146619570, -0.9, -0.01, -0.01, -0.18, -0.18, -0.18, 28.76, 0
146831, 146831572, -0.7, -0.01, -0.01, -0.14, -0.14, -0.14, 28.76, 0
147042, 147042561, -0.74, -0.01, -0.01, -0.09, -0.09, -0.09, 28.85, 0
147261, 147261558, -0.69, -0.01, -0.01, -0.19, -0.19, -0.19, 28.76, 0
147458, 147458566, -0.91, -0.01, -0.01, -0.21, -0.21, -0.21, 28.76, 0
147672, 147672566, -0.74, -0.01, -0.01, -0.17, -0.17, -0.17, 28.76, 0
147813, 147813561, -0.73, -0.01, -0.01, -0.28, -0.28, -0.28, 28.76, 0
148028, 148028565, -0.87, -0.01, -0.01, -0.17, -0.17, -0.17, 28.76, 0
148317, 148317566, -0.89, -0.01, -0.01, -0.07, -0.07, -0.07, 28.76, 0
148458, 148458567, -0.85, -0.01, -0.01, -0.23, -0.23, -0.23, 28.71, 0
148669, 148669566, -0.79, -0.01, -0.01, -0.2, -0.2, -0.2, 28.71, 0
148883, 148883561, -0.72, -0.01, -0.01, -0.17, -0.17, -0.17, 28.71, 0
149179, 149179566, -0.79, -0.01, -0.01, -0.19, -0.19, -0.19, 28.71, 0
149316, 149316567, -0.82, -0.01, -0.01, -0.09, -0.09, -0.09, 28.76, 0
149607, 149607566, -0.87, -0.01, -0.01, -0.2, -0.2, -0.2, 28.76, 0
149748, 149748567, -0.87, -0.01, -0.01, -0.26, -0.26, -0.26, 28.81, 0
149962, 149962568, -0.71, -0.01, -0.01, -0.13, -0.13, -0.13, 28.76, 0
150173, 150173566, -0.84, -0.01, -0.01, -0.23, -0.23, -0.23, 28.76, 0
150387, 150387567, -0.86, -0.01, -0.01, -0.21, -0.21, -0.21, 28.76, 0
150603, 150603561, -0.76, -0.01, -0.01, -0.16, -0.16, -0.16, 28.71, 0
150893, 150893566, -0.75, -0.01, -0.01, -0.19, -0.19, -0.19, 28.76, 0
151037, 151037564, -0.89, -0.01, -0.01, -0.18, -0.18, -0.18, 28.71, 0
151252, 151252559, -0.74, -0.01, -0.01, -0.15, -0.15, -0.15, 28.85, 0
151462, 151462566, -0.69, -0.01, -0.01, -0.1, -0.1, -0.1, 28.85, 0
151662, 151662568, -0.73, -0.01, -0.01, -0.19, -0.19, -0.19, 28.76, 0
151952, 151952565, -0.73, -0.01, -0.01, -0.22, -0.22, -0.22, 28.85, 0
152098, 152098560, -0.73, -0.01, -0.01, -0.12, -0.12, -0.12, 28.71, 0
152388, 152388565, -0.76, -0.01, -0.01, -0.16, -0.16, -0.16, 28.85, 0
152526, 152526566, -0.87, -0.01, -0.01, -0.26, -0.26, -0.26, 28.85, 0
152819, 152819565, -0.67, -0.01, -0.01, -0.26, -0.26, -0.26, 28.76, 0
152959, 152959564, -0.73, -0.01, -0.01, -0.18, -0.18, -0.18, 28.71, 0
153171, 153171565, -0.78, -0.01, -0.01, -0.27, -0.27, -0.27, 28.71, 0
153386, 153386567, -0.75, -0.01, -0.01, -0.23, -0.23, -0.23, 28.71, 0
153599, 153599566, -0.67, -0.01, -0.01, -0.24, -0.24, -0.24, 28.81, 0
153809, 153809560, -0.73, -0.01, -0.01, -0.17, -0.17, -0.17, 28.76, 0
154027, 154027566, -0.78, -0.01, -0.01, -0.19, -0.19, -0.19, 28.81, 0
154320, 154320565, -0.75, -0.01, -0.01, -0.13, -0.13, -0.13, 28.9, 0
154458, 154458559, -0.82, -0.01, -0.01, -0.2, -0.2, -0.2, 28.71, 0
154670, 154670567, -0.67, -0.01, -0.01, -0.17, -0.17, -0.17, 28.76, 0
154886, 154886565, -0.77, -0.01, -0.01, -0.22, -0.22, -0.22, 28.85, 0
155178, 155178565, -0.76, -0.01, -0.01, -0.17, -0.17, -0.17, 28.76, 0
155316, 155316560, -0.75, -0.01, -0.01, -0.18, -0.18, -0.18, 28.71, 0
155531, 155531569, -0.82, -0.01, -0.01, -0.08, -0.08, -0.08, 28.81, 0
155745, 155745565, -0.75, -0.01, -0.01, -0.28, -0.28, -0.28, 28.67, 0
155955, 155955565, -0.79, -0.01, -0.01, -0.1, -0.1, -0.1, 28.85, 0
156249, 156249565, -0.76, -0.01, -0.01, -0.22, -0.22, -0.22, 28.76, 0
156389, 156389560, -0.72, -0.01, -0.01, -0.22, -0.22, -0.22, 28.81, 0
156599, 156599564, -0.72, -0.01, -0.01, -0.24, -0.24, -0.24, 28.81, 0
156811, 156811566, -0.87, -0.01, -0.01, -0.17, -0.17, -0.17, 28.9, 0
157029, 157029566, -0.82, -0.01, -0.01, -0.16, -0.16, -0.16, 28.85, 0
157316, 157316565, -0.72, -0.01, -0.01, -0.24, -0.24, -0.24, 28.81, 0
157456, 157456560, -0.76, -0.01, -0.01, -0.24, -0.24, -0.24, 28.85, 0
157671, 157671565, -0.84, -0.01, -0.01, -0.22, -0.22, -0.22, 28.81, 0
157884, 157884564, -0.77, -0.01, -0.01, -0.24, -0.24, -0.24, 28.71, 0
158175, 158175565, -0.73, -0.01, -0.01, -0.16, -0.16, -0.16, 28.81, 0
158316, 158316559, -0.73, -0.01, -0.01, -0.1, -0.1, -0.1, 28.76, 0
158527, 158527559, -0.68, -0.01, -0.01, -0.15, -0.15, -0.15, 28.76, 0
158818, 158818565, -0.81, -0.01, -0.01, -0.25, -0.25, -0.25, 28.76, 0
158959, 158959565, -0.79, -0.01, -0.01, -0.18, -0.18, -0.18, 28.81, 0
159384, 159384560, -0.79, -0.01, -0.01, -0.24, -0.24, -0.24, 28.76, 0
159597, 159597560, -0.73, -0.01, -0.01, -0.24, -0.24, -0.24, 28.85, 0
159813, 159813565, -0.81, -0.01, -0.01, -0.17, -0.17, -0.17, 28.81, 0
160027, 160027559, -0.8, -0.01, -0.01, -0.24, -0.24, -0.24, 28.81, 0
160316, 160316565, -0.73, -0.01, -0.01, -0.17, -0.17, -0.17, 28.81, 0
160457, 160457567, -0.74, -0.01, -0.01, -0.15, -0.15, -0.15, 28.76, 0
160668, 160668566, -0.86, -0.01, -0.01, -0.2, -0.2, -0.2, 28.76, 0
160960, 160960565, -0.79, -0.01, -0.01, -0.12, -0.12, -0.12, 28.85, 0
161102, 161102564, -0.84, -0.01, -0.01, -0.29, -0.29, -0.29, 28.67, 0
161313, 161313560, -0.73, -0.01, -0.01, -0.29, -0.29, -0.29, 28.81, 0
161604, 161604565, -0.78, -0.01, -0.01, -0.27, -0.27, -0.27, 28.81, 0
161744, 161744560, -0.79, -0.01, -0.01, -0.24, -0.24, -0.24, 28.85, 0
161959, 161959566, -0.9, -0.01, -0.01, -0.25, -0.25, -0.25, 28.85, 0
162170, 162170569, -0.81, -0.01, -0.01, -0.24, -0.24, -0.24, 28.81, 0
162384, 162384560, -0.71, -0.01, -0.01, -0.2, -0.2, -0.2, 28.9, 0
162598, 162598564, -0.77, -0.01, -0.01, -0.19, -0.19, -0.19, 28.81, 0
162808, 162808565, -0.89, -0.01, -0.01, -0.22, -0.22, -0.22, 28.85, 0
163027, 163027567, -0.82, -0.01, -0.01, -0.16, -0.16, -0.16, 28.85, 0
163319, 163319565, -0.88, -0.01, -0.01, -0.15, -0.15, -0.15, 28.76, 0
163456, 163456565, -0.73, -0.01, -0.01, -0.25, -0.25, -0.25, 28.9, 0
163747, 163747565, -0.83, -0.01, -0.01, -0.22, -0.22, -0.22, 28.9, 0
163888, 163888567, -0.83, -0.01, -0.01, -0.21, -0.21, -0.21, 28.85, 0
164102, 164102559, -0.75, -0.01, -0.01, -0.22, -0.22, -0.22, 28.85, 0
164392, 164392565, -0.77, -0.01, -0.01, -0.11, -0.11, -0.11, 28.85, 0
164533, 164533560, -0.71, -0.01, -0.01, -0.21, -0.21, -0.21, 28.9, 0
164748, 164748567, -0.91, -0.01, -0.01, -0.12, -0.12, -0.12, 28.85, 0
0, 0, 0.0, 0.0, 0.0, 0.0, 0.0, 0.0, 0.0, 0
165183, 165183559, -0.7, -0.01, -0.01, -0.2, -0.2, -0.2, 28.85, 0
165398, 165398566, -0.94, -0.01, -0.01, -0.22, -0.22, -0.22, 28.85, 0
165610, 165610567, -0.85, -0.01, -0.01, -0.22, -0.22, -0.22, 28.85, 0
165823, 165823560, -0.67, -0.01, -0.01, -0.21, -0.21, -0.21, 28.81, 0
166039, 166039564, -0.83, -0.01, -0.01, -0.23, -0.23, -0.23, 28.81, 0
166328, 166328565, -0.86, -0.01, -0.01, -0.26, -0.26, -0.26, 28.81, 0
166465, 166465564, -0.8, -0.01, -0.01, -0.16, -0.16, -0.16, 28.85, 0
166756, 166756565, -0.88, -0.01, -0.01, -0.17, -0.17, -0.17, 28.85, 0
166900, 166900560, -0.77, -0.01, -0.01, -0.19, -0.19, -0.19, 28.9, 0
167191, 167191565, -0.77, -0.01, -0.01, -0.16, -0.16, -0.16, 28.9, 0
167329, 167329560, -0.7, -0.01, -0.01, -0.14, -0.14, -0.14, 28.85, 0
167547, 167547562, -0.79, -0.01, -0.01, -0.06, -0.06, -0.06, 28.76, 0
167744, 167744565, -0.81, -0.01, -0.01, -0.11, -0.11, -0.11, 28.95, 0
167960, 167960565, -0.71, -0.01, -0.01, -0.25, -0.25, -0.25, 28.76, 0
168101, 168101560, -0.7, -0.01, -0.01, -0.22, -0.22, -0.22, 28.81, 0
168389, 168389565, -0.79, -0.01, -0.01, -0.21, -0.21, -0.21, 28.81, 0
168529, 168529560, -0.82, -0.01, -0.01, -0.21, -0.21, -0.21, 28.85, 0
168748, 168748565, -0.8, -0.01, -0.01, -0.24, -0.24, -0.24, 28.85, 0
169040, 169040565, -0.74, -0.01, -0.01, -0.26, -0.26, -0.26, 28.85, 0
169180, 169180559, -0.73, -0.01, -0.01, -0.21, -0.21, -0.21, 28.81, 0
169395, 169395565, -0.81, -0.01, -0.01, -0.28, -0.28, -0.28, 28.9, 0
169607, 169607566, -0.77, -0.01, -0.01, -0.23, -0.23, -0.23, 28.9, 0
169817, 169817567, -0.84, -0.01, -0.01, -0.12, -0.12, -0.12, 28.85, 0
170036, 170036566, -0.84, -0.01, -0.01, -0.13, -0.13, -0.13, 28.85, 0
170324, 170324565, -0.89, -0.01, -0.01, -0.24, -0.24, -0.24, 28.95, 0
170465, 170465566, -0.82, -0.01, -0.01, -0.19, -0.19, -0.19, 28.9, 0
170755, 170755565, -0.83, -0.01, -0.01, -0.25, -0.25, -0.25, 28.95, 0
170896, 170896566, -0.76, -0.01, -0.01, -0.26, -0.26, -0.26, 28.85, 0
171189, 171189565, -0.71, -0.01, -0.01, -0.18, -0.18, -0.18, 28.85, 0
171330, 171330560, -0.77, -0.01, -0.01, -0.18, -0.18, -0.18, 28.9, 0
171545, 171545567, -0.76, -0.01, -0.01, -0.29, -0.29, -0.29, 28.9, 0
171755, 171755566, -0.8, -0.01, -0.01, -0.28, -0.28, -0.28, 28.9, 0
172047, 172047565, -0.79, -0.01, -0.01, -0.21, -0.21, -0.21, 28.9, 0
172190, 172190567, -0.74, -0.01, -0.01, -0.3, -0.3, -0.3, 28.85, 0
172481, 172481565, -0.85, -0.01, -0.01, -0.27, -0.27, -0.27, 28.76, 0
172619, 172619560, -0.76, -0.01, -0.01, -0.18, -0.18, -0.18, 28.9, 0
173051, 173051565, -0.88, -0.01, -0.01, -0.26, -0.26, -0.26, 28.85, 0
173337, 173337565, -0.71, -0.01, -0.01, -0.2, -0.2, -0.2, 28.81, 0
173548, 173548565, -0.71, -0.01, -0.01, -0.19, -0.19, -0.19, 28.95, 0
173689, 173689567, -0.77, -0.01, -0.01, -0.17, -0.17, -0.17, 28.9, 0
173979, 173979819, -0.91, -0.01, -0.01, -0.22, -0.22, -0.22, 28.85, 0
174184, 174184565, -0.82, -0.01, -0.01, -0.14, -0.14, -0.14, 28.81, 0
174325, 174325566, -0.75, -0.01, -0.01, -0.08, -0.08, -0.08, 28.81, 0
174535, 174535560, -0.7, -0.01, -0.01, -0.19, -0.19, -0.19, 28.76, 0
174748, 174748566, -0.8, -0.01, -0.01, -0.27, -0.27, -0.27, 28.95, 0
174962, 174962566, -0.75, -0.01, -0.01, -0.17, -0.17, -0.17, 28.85, 0
175173, 175173560, -0.74, -0.01, -0.01, -0.23, -0.23, -0.23, 28.9, 0
175388, 175388567, -0.85, -0.01, -0.01, -0.18, -0.18, -0.18, 28.85, 0
175603, 175603566, -0.78, -0.01, -0.01, -0.15, -0.15, -0.15, 28.85, 0
175817, 175817566, -0.74, -0.01, -0.01, -0.14, -0.14, -0.14, 28.95, 0
176110, 176110565, -0.84, -0.01, -0.01, -0.23, -0.23, -0.23, 28.95, 0
176251, 176251565, -0.81, -0.01, -0.01, -0.15, -0.15, -0.15, 28.9, 0
176464, 176464565, -0.74, -0.01, -0.01, -0.02, -0.02, -0.02, 28.85, 0
176674, 176674559, -0.72, -0.01, -0.01, -0.18, -0.18, -0.18, 28.95, 0
176889, 176889566, -0.84, -0.01, -0.01, -0.17, -0.17, -0.17, 28.85, 0
177181, 177181565, -0.82, -0.01, -0.01, -0.1, -0.1, -0.1, 28.95, 0
177318, 177318565, -0.86, -0.01, -0.01, -0.17, -0.17, -0.17, 28.9, 0
177535, 177535560, -0.72, -0.01, -0.01, -0.13, -0.13, -0.13, 28.9, 0
177749, 177749565, -0.83, -0.01, -0.01, -0.15, -0.15, -0.15, 28.85, 0
177959, 177959567, -0.86, -0.01, -0.01, -0.12, -0.12, -0.12, 28.95, 0
0, 0, 0.0, 0.0, 0.0, 0.0, 0.0, 0.0, 0.0, 0
178468, 178468565, -0.82, -0.01, -0.01, -0.07, -0.07, -0.07, 28.95, 0
178610, 178610566, -0.84, -0.01, -0.01, -0.16, -0.16, -0.16, 28.9, 0
178824, 178824560, -0.73, -0.01, -0.01, -0.19, -0.19, -0.19, 28.95, 0
179038, 179038566, -0.82, -0.01, -0.01, -0.16, -0.16, -0.16, 28.9, 0
179327, 179327565, -0.95, -0.01, -0.01, -0.14, -0.14, -0.14, 28.95, 0
179472, 179472560, -0.67, -0.01, -0.01, -0.1, -0.1, -0.1, 28.95, 0
179762, 179762565, -0.79, -0.01, -0.01, -0.08, -0.08, -0.08, 29.0, 0
179899, 179899566, -0.7, -0.01, -0.01, -0.14, -0.14, -0.14, 29.0, 0
180116, 180116566, -0.89, -0.01, -0.01, -0.14, -0.14, -0.14, 29.04, 0
180330, 180330566, -0.74, -0.01, -0.01, -0.19, -0.19, -0.19, 29.0, 0
180541, 180541560, -0.75, -0.01, -0.01, -0.19, -0.19, -0.19, 28.95, 0
180833, 180833565, -0.77, -0.01, -0.01, -0.09, -0.09, -0.09, 29.04, 0
180973, 180973396, -0.75, -0.01, -0.01, -0.04, -0.04, -0.04, 28.95, 0
181266, 181266565, -0.81, -0.01, -0.01, -0.15, -0.15, -0.15, 29.0, 0
181407, 181407566, -0.8, -0.01, -0.01, -0.21, -0.21, -0.21, 29.04, 0
181621, 181621559, -0.72, -0.01, -0.01, -0.17, -0.17, -0.17, 28.95, 0
181831, 181831560, -0.71, -0.01, -0.01, -0.15, -0.15, -0.15, 29.0, 0
182048, 182048566, -0.81, -0.01, -0.01, -0.17, -0.17, -0.17, 29.0, 0
182336, 182336565, -0.84, -0.01, -0.01, -0.23, -0.23, -0.23, 29.0, 0
182474, 182474565, -0.84, -0.01, -0.01, -0.21, -0.21, -0.21, 29.04, 0
182765, 182765565, -0.92, -0.01, -0.01, -0.1, -0.1, -0.1, 29.0, 0
182906, 182906567, -0.79, -0.01, -0.01, -0.28, -0.28, -0.28, 29.04, 0
183204, 183204565, -0.88, -0.01, -0.01, -0.18, -0.18, -0.18, 29.04, 0
183342, 183342566, -0.72, -0.01, -0.01, -0.17, -0.17, -0.17, 29.0, 0
183555, 183555566, -0.93, -0.01, -0.01, -0.24, -0.24, -0.24, 28.95, 0
183771, 183771560, -0.75, -0.01, -0.01, -0.13, -0.13, -0.13, 29.0, 0
183983, 183983071, -0.84, -0.01, -0.01, -0.14, -0.14, -0.14, 29.0, 0
184275, 184275565, -0.83, -0.01, -0.01, -0.12, -0.12, -0.12, 29.04, 0
184416, 184416565, -0.71, -0.01, -0.01, -0.27, -0.27, -0.27, 29.0, 0
184629, 184629560, -0.65, -0.01, -0.01, -0.18, -0.18, -0.18, 29.09, 0
184921, 184921565, -0.82, -0.01, -0.01, -0.2, -0.2, -0.2, 28.9, 0
185060, 185060560, -0.71, -0.01, -0.01, -0.22, -0.22, -0.22, 28.95, 0
185273, 185273566, -0.77, -0.01, -0.01, -0.19, -0.19, -0.19, 29.04, 0
185563, 185563565, -0.94, -0.01, -0.01, -0.19, -0.19, -0.19, 29.04, 0
185704, 185704567, -0.79, -0.01, -0.01, -0.24, -0.24, -0.24, 29.0, 0
185915, 185915566, -0.76, -0.01, -0.01, -0.19, -0.19, -0.19, 28.95, 0
186213, 186213565, -0.91, -0.01, -0.01, -0.21, -0.21, -0.21, 28.95, 0
186353, 186353566, -0.8, -0.01, -0.01, -0.21, -0.21, -0.21, 29.04, 0
186571, 186571559, -0.86, -0.01, -0.01, -0.22, -0.22, -0.22, 29.0, 0
186857, 186857565, -0.75, -0.01, -0.01, -0.15, -0.15, -0.15, 28.95, 0
187001, 187001567, -0.85, -0.01, -0.01, -0.1, -0.1, -0.1, 29.04, 0
187213, 187213565, -0.89, -0.01, -0.01, -0.17, -0.17, -0.17, 29.04, 0
187424, 187424560, -0.76, -0.01, -0.01, -0.14, -0.14, -0.14, 29.04, 0
187717, 187717565, -0.71, -0.01, -0.01, -0.3, -0.3, -0.3, 29.04, 0
187858, 187858560, -0.75, -0.01, -0.01, -0.29, -0.29, -0.29, 28.95, 0
188071, 188071567, -0.84, -0.01, -0.01, -0.23, -0.23, -0.23, 28.95, 0
188362, 188362565, -0.9, -0.01, -0.01, -0.11, -0.11, -0.11, 28.9, 0
188503, 188503565, -0.82, -0.01, -0.01, -0.12, -0.12, -0.12, 29.04, 0
188714, 188714560, -0.69, -0.01, -0.01, -0.24, -0.24, -0.24, 28.85, 0
188929, 188929566, -0.82, -0.01, -0.01, -0.2, -0.2, -0.2, 29.04, 0
189145, 189145559, -0.7, -0.01, -0.01, -0.22, -0.22, -0.22, 29.0, 0
189356, 189356560, -0.63, -0.01, -0.01, -0.13, -0.13, -0.13, 29.0, 0
189646, 189646565, -0.75, -0.01, -0.01, -0.23, -0.23, -0.23, 29.0, 0
189787, 189787567, -0.79, -0.01, -0.01, -0.22, -0.22, -0.22, 28.95, 0
189999, 189999567, -0.75, -0.01, -0.01, -0.17, -0.17, -0.17, 29.04, 0
190295, 190295565, -0.71, -0.01, -0.01, -0.24, -0.24, -0.24, 29.04, 0
190435, 190435559, -0.69, -0.01, -0.01, -0.23, -0.23, -0.23, 29.09, 0
190650, 190650565, -0.85, -0.01, -0.01, -0.08, -0.08, -0.08, 29.04, 0
190861, 190861565, -0.8, -0.01, -0.01, -0.16, -0.16, -0.16, 28.95, 0
191079, 191079566, -0.84, -0.01, -0.01, -0.11, -0.11, -0.11, 28.95, 0
191275, 191275560, -0.78, -0.01, -0.01, -0.21, -0.21, -0.21, 29.04, 0
191516, 191516562, -0.74, -0.01, -0.01, -0.17, -0.17, -0.17, 29.09, 0
191715, 191715565, -0.75, -0.01, -0.01, -0.04, -0.04, -0.04, 29.09, 0
191934, 191934565, -0.73, -0.01, -0.01, -0.23, -0.23, -0.23, 29.04, 0
192074, 192074560, -0.74, -0.01, -0.01, -0.28, -0.28, -0.28, 29.09, 0
192362, 192362565, -0.71, -0.01, -0.01, -0.18, -0.18, -0.18, 29.04, 0
192502, 192502559, -0.82, -0.01, -0.01, -0.27, -0.27, -0.27, 29.0, 0
192715, 192715566, -0.73, -0.01, -0.01, -0.28, -0.28, -0.28, 28.9, 0
192925, 192925565, -0.75, -0.01, -0.01, -0.28, -0.28, -0.28, 29.14, 0
193217, 193217565, -0.87, -0.01, -0.01, -0.29, -0.29, -0.29, 29.0, 0
193358, 193358566, -0.79, -0.01, -0.01, -0.19, -0.19, -0.19, 29.04, 0
193568, 193568566, -0.87, -0.01, -0.01, -0.23, -0.23, -0.23, 29.14, 0
193864, 193864565, -0.85, -0.01, -0.01, -0.16, -0.16, -0.16, 29.09, 0
194005, 194005566, -0.83, -0.01, -0.01, -0.24, -0.24, -0.24, 29.14, 0
194219, 194219566, -0.81, -0.01, -0.01, -0.18, -0.18, -0.18, 29.04, 0
194430, 194430560, -0.79, -0.01, -0.01, -0.15, -0.15, -0.15, 29.14, 0
194644, 194644565, -0.84, -0.01, -0.01, -0.07, -0.07, -0.07, 29.14, 0
194858, 194858566, -0.79, -0.01, -0.01, -0.15, -0.15, -0.15, 29.18, 0
195071, 195071560, -0.76, -0.01, -0.01, -0.07, -0.07, -0.07, 29.09, 0
195359, 195359565, -0.74, -0.01, -0.01, -0.08, -0.08, -0.08, 29.09, 0
195504, 195504566, -0.82, -0.01, -0.01, -0.12, -0.12, -0.12, 29.04, 0
195790, 195790565, -0.72, -0.01, -0.01, -0.15, -0.15, -0.15, 29.04, 0
195931, 195931560, -0.73, -0.01, -0.01, -0.14, -0.14, -0.14, 29.09, 0
196226, 196226565, -0.86, -0.01, -0.01, -0.24, -0.24, -0.24, 29.14, 0
196363, 196363566, -0.84, -0.01, -0.01, -0.12, -0.12, -0.12, 29.09, 0
196654, 196654565, -0.85, -0.01, -0.01, -0.12, -0.12, -0.12, 29.09, 0
196795, 196795565, -0.87, -0.01, -0.01, -0.05, -0.05, -0.05, 29.04, 0
197011, 197011560, -0.67, -0.01, -0.01, -0.06, -0.06, -0.06, 29.14, 0
197301, 197301565, -0.77, -0.01, -0.01, -0.01, -0.01, -0.01, 29.09, 0
197441, 197441560, -0.73, -0.01, -0.01, -0.09, -0.09, -0.09, 29.09, 0
197655, 197655566, -0.8, -0.01, -0.01, -0.17, -0.17, -0.17, 29.0, 0
197866, 197866565, -0.84, -0.01, -0.01, -0.04, -0.04, -0.04, 29.04, 0
198159, 198159565, -0.78, -0.01, -0.01, -0.14, -0.14, -0.14, 29.04, 0
198300, 198300560, -0.73, -0.01, -0.01, -0.18, -0.18, -0.18, 29.14, 0
198510, 198510560, -0.72, -0.01, -0.01, -0.1, -0.1, -0.1, 29.09, 0
198725, 198725566, -0.84, -0.01, -0.01, -0.08, -0.08, -0.08, 29.09, 0
198940, 198940560, -0.69, -0.01, -0.01, -0.18, -0.18, -0.18, 29.14, 0
199234, 199234565, -0.87, -0.01, -0.01, -0.08, -0.08, -0.08, 29.18, 0
199372, 199372566, -0.89, -0.01, -0.01, -0.1, -0.1, -0.1, 29.14, 0
199588, 199588560, -0.62, -0.01, -0.01, -0.12, -0.12, -0.12, 29.18, 0
199798, 199798560, -0.76, -0.01, -0.01, -0.18, -0.18, -0.18, 29.09, 0
200093, 200093561, -0.82, -0.01, -0.01, -0.09, -0.09, -0.09, 29.28, 0
200233, 200233565, -0.86, -0.01, -0.01, -0.13, -0.13, -0.13, 29.04, 0
200448, 200448566, -0.77, -0.01, -0.01, -0.25, -0.25, -0.25, 29.18, 0
200659, 200659560, -0.73, -0.01, -0.01, -0.23, -0.23, -0.23, 29.18, 0
200875, 200875565, -0.84, -0.01, -0.01, -0.25, -0.25, -0.25, 29.09, 0
201091, 201091566, -0.8, -0.01, -0.01, -0.11, -0.11, -0.11, 29.18, 0
201377, 201377564, -0.73, -0.01, -0.01, -0.15, -0.15, -0.15, 29.09, 0
201517, 201517558, -0.78, -0.01, -0.01, -0.24, -0.24, -0.24, 29.14, 0
201733, 201733564, -0.88, -0.01, -0.01, -0.2, -0.2, -0.2, 29.14, 0
202022, 202022564, -0.82, -0.01, -0.01, -0.25, -0.25, -0.25, 29.14, 0
202161, 202161564, -0.76, -0.01, -0.01, -0.2, -0.2, -0.2, 29.18, 0
202376, 202376564, -0.81, -0.01, -0.01, -0.25, -0.25, -0.25, 29.18, 0
202589, 202589559, -0.77, -0.01, -0.01, -0.2, -0.2, -0.2, 29.23, 0
202878, 202878564, -0.67, -0.01, -0.01, -0.22, -0.22, -0.22, 29.23, 0
203026, 203026558, -0.81, -0.01, -0.01, -0.23, -0.23, -0.23, 29.23, 0
203315, 203315564, -0.82, -0.01, -0.01, -0.12, -0.12, -0.12, 29.14, 0
203453, 203453559, -0.83, -0.01, -0.01, -0.17, -0.17, -0.17, 29.18, 0
203666, 203666557, -0.77, -0.01, -0.01, -0.2, -0.2, -0.2, 29.14, 0
203882, 203882559, -0.83, -0.01, -0.01, -0.27, -0.27, -0.27, 29.23, 0
204169, 204169564, -0.78, -0.01, -0.01, -0.22, -0.22, -0.22, 29.23, 0
204309, 204309559, -0.74, -0.01, -0.01, -0.18, -0.18, -0.18, 29.28, 0
204495, 204495572, -0.79, -0.01, -0.01, -0.23, -0.23, -0.23, 29.28, 0
204744, 204744564, -0.84, -0.01, -0.01, -0.03, -0.03, -0.03, 29.14, 0
204956, 204956558, -0.75, -0.01, -0.01, -0.04, -0.04, -0.04, 29.23, 0
205248, 205248564, -0.75, -0.01, -0.01, -0.21, -0.21, -0.21, 29.23, 0
205388, 205388558, -0.73, -0.01, -0.01, -0.11, -0.11, -0.11, 29.28, 0
205603, 205603564, -0.88, -0.01, -0.01, -0.06, -0.06, -0.06, 29.14, 0
205813, 205813564, -0.87, -0.01, -0.01, -0.13, -0.13, -0.13, 29.28, 0
206030, 206030559, -0.85, -0.01, -0.01, -0.18, -0.18, -0.18, 29.33, 0
206247, 206247559, -0.73, -0.01, -0.01, -0.25, -0.25, -0.25, 29.23, 0
206462, 206462566, -0.81, -0.01, -0.01, -0.19, -0.19, -0.19, 29.14, 0
206676, 206676558, -0.77, -0.01, -0.01, -0.14, -0.14, -0.14, 29.28, 0
206890, 206890565, -0.77, -0.01, -0.01, -0.16, -0.16, -0.16, 29.28, 0
207100, 207100564, -0.78, -0.01, -0.01, -0.1, -0.1, -0.1, 29.09, 0
207392, 207392564, -0.86, -0.01, -0.01, -0.2, -0.2, -0.2, 29.18, 0
207533, 207533565, -0.8, -0.01, -0.01, -0.21, -0.21, -0.21, 29.23, 0
207743, 207743564, -0.87, -0.01, -0.01, -0.2, -0.2, -0.2, 29.14, 0
208044, 208044564, -0.85, -0.01, -0.01, -0.22, -0.22, -0.22, 29.18, 0
208187, 208187559, -0.78, -0.01, -0.01, -0.19, -0.19, -0.19, 29.18, 0
208398, 208398564, -0.76, -0.01, -0.01, -0.23, -0.23, -0.23, 29.23, 0
208690, 208690564, -0.84, -0.01, -0.01, -0.21, -0.21, -0.21, 29.18, 0
208831, 208831564, -0.87, -0.01, -0.01, -0.2, -0.2, -0.2, 29.33, 0
209046, 209046564, -0.75, -0.01, -0.01, -0.2, -0.2, -0.2, 29.18, 0
209332, 209332564, -0.8, -0.01, -0.01, -0.17, -0.17, -0.17, 29.14, 0
209472, 209472564, -0.9, -0.01, -0.01, -0.21, -0.21, -0.21, 29.14, 0
209687, 209687564, -0.73, -0.01, -0.01, -0.24, -0.24, -0.24, 29.18, 0
209978, 209978564, -0.86, -0.01, -0.01, -0.25, -0.25, -0.25, 29.18, 0
210119, 210119564, -0.74, -0.01, -0.01, -0.23, -0.23, -0.23, 29.23, 0
210335, 210335559, -0.72, -0.01, -0.01, -0.22, -0.22, -0.22, 29.18, 0
210545, 210545559, -0.75, -0.01, -0.01, -0.24, -0.24, -0.24, 29.18, 0
210759, 210759564, -0.82, -0.01, -0.01, -0.24, -0.24, -0.24, 29.18, 0
210973, 210973351, -0.69, -0.01, -0.01, -0.19, -0.19, -0.19, 29.23, 0
211267, 211267564, -0.82, -0.01, -0.01, -0.13, -0.13, -0.13, 29.14, 0
211404, 211404558, -0.79, -0.01, -0.01, -0.17, -0.17, -0.17, 29.09, 0
211624, 211624558, -0.69, -0.01, -0.01, -0.19, -0.19, -0.19, 29.18, 0
211912, 211912564, -0.84, -0.01, -0.01, -0.08, -0.08, -0.08, 29.23, 0
212051, 212051564, -0.77, -0.01, -0.01, -0.07, -0.07, -0.07, 29.23, 0
212264, 212264558, -0.71, -0.01, -0.01, -0.18, -0.18, -0.18, 29.14, 0
212478, 212478558, -0.88, -0.01, -0.01, -0.17, -0.17, -0.17, 29.14, 0
212689, 212689566, -0.89, -0.01, -0.01, -0.22, -0.22, -0.22, 29.23, 0
212902, 212902558, -0.73, -0.01, -0.01, -0.26, -0.26, -0.26, 29.28, 0
213119, 213119564, -0.86, -0.01, -0.01, -0.26, -0.26, -0.26, 29.28, 0
213333, 213333559, -0.68, -0.01, -0.01, -0.15, -0.15, -0.15, 29.23, 0
213622, 213622564, -0.77, -0.01, -0.01, -0.18, -0.18, -0.18, 29.18, 0
213762, 213762558, -0.77, -0.01, -0.01, -0.24, -0.24, -0.24, 29.14, 0
213973, 213973373, -0.79, -0.01, -0.01, -0.18, -0.18, -0.18, 29.28, 0
214269, 214269564, -0.84, -0.01, -0.01, -0.2, -0.2, -0.2, 29.23, 0
214410, 214410565, -0.79, -0.01, -0.01, -0.2, -0.2, -0.2, 29.18, 0
214620, 214620565, -0.91, -0.01, -0.01, -0.19, -0.19, -0.19, 29.14, 0
214912, 214912564, -0.75, -0.01, -0.01, -0.07, -0.07, -0.07, 29.23, 0
215055, 215055564, -0.72, -0.01, -0.01, -0.26, -0.26, -0.26, 29.14, 0
215346, 215346564, -0.84, -0.01, -0.01, -0.26, -0.26, -0.26, 29.33, 0
215484, 215484564, -0.76, -0.01, -0.01, -0.16, -0.16, -0.16, 29.18, 0
215698, 215698564, -0.84, -0.01, -0.01, -0.2, -0.2, -0.2, 29.23, 0
215914, 215914558, -0.74, -0.01, -0.01, -0.03, -0.03, -0.03, 29.23, 0
216203, 216203564, -0.74, -0.01, -0.01, -0.03, -0.03, -0.03, 29.23, 0
216343, 216343559, -0.68, -0.01, -0.01, -0.19, -0.19, -0.19, 29.28, 0
216558, 216558564, -0.86, -0.01, -0.01, -0.1, -0.1, -0.1, 29.18, 0
216768, 216768566, -0.84, -0.01, -0.01, -0.13, -0.13, -0.13, 29.18, 0
217061, 217061564, -0.76, -0.01, -0.01, -0.16, -0.16, -0.16, 29.28, 0
217203, 217203568, -0.79, -0.01, -0.01, -0.15, -0.15, -0.15, 29.23, 0
217414, 217414564, -0.73, -0.01, -0.01, -0.16, -0.16, -0.16, 29.33, 0
217705, 217705564, -0.8, -0.01, -0.01, -0.21, -0.21, -0.21, 29.23, 0
0, 0, 0.0, 0.0, 0.0, 0.0, 0.0, 0.0, 0.0, 0
218142, 218142564, -0.72, -0.01, -0.01, -0.19, -0.19, -0.19, 29.28, 0
218284, 218284564, -0.8, -0.01, -0.01, -0.29, -0.29, -0.29, 29.23, 0
218497, 218497565, -0.8, -0.01, -0.01, -0.11, -0.11, -0.11, 29.23, 0
218711, 218711559, -0.7, -0.01, -0.01, -0.13, -0.13, -0.13, 29.28, 0
219006, 219006564, -0.92, -0.01, -0.01, -0.15, -0.15, -0.15, 29.23, 0
219145, 219145564, -0.84, -0.01, -0.01, -0.2, -0.2, -0.2, 29.28, 0
219436, 219436564, -0.93, -0.01, -0.01, -0.14, -0.14, -0.14, 29.18, 0
219577, 219577564, -0.91, -0.01, -0.01, -0.18, -0.18, -0.18, 29.23, 0
219788, 219788564, -0.77, -0.01, -0.01, -0.18, -0.18, -0.18, 29.23, 0
220080, 220080564, -0.74, -0.01, -0.01, -0.11, -0.11, -0.11, 29.23, 0
220219, 220219559, -0.74, -0.01, -0.01, -0.02, -0.02, -0.02, 29.18, 0
220435, 220435564, -0.84, -0.01, -0.01, -0.24, -0.24, -0.24, 29.28, 0
220649, 220649558, -0.78, -0.01, -0.01, -0.26, -0.26, -0.26, 29.23, 0
220938, 220938564, -0.77, -0.01, -0.01, -0.12, -0.12, -0.12, 29.23, 0
221079, 221079558, -0.73, -0.01, -0.01, -0.21, -0.21, -0.21, 29.37, 0
221290, 221290558, -0.72, -0.01, -0.01, -0.23, -0.23, -0.23, 29.18, 0
221504, 221504565, -0.87, -0.01, -0.01, -0.16, -0.16, -0.16, 29.37, 0
221719, 221719559, -0.7, -0.01, -0.01, -0.19, -0.19, -0.19, 29.33, 0
221929, 221929558, -0.76, -0.01, -0.01, -0.23, -0.23, -0.23, 29.23, 0
222223, 222223564, -0.77, -0.01, -0.01, -0.19, -0.19, -0.19, 29.33, 0
222368, 222368558, -0.79, -0.01, -0.01, -0.26, -0.26, -0.26, 29.23, 0
222659, 222659564, -0.77, -0.01, -0.01, -0.19, -0.19, -0.19, 29.23, 0
222798, 222798566, -0.74, -0.01, -0.01, -0.19, -0.19, -0.19, 29.23, 0
223013, 223013564, -0.82, -0.01, -0.01, -0.16, -0.16, -0.16, 29.23, 0
223226, 223226566, -0.82, -0.01, -0.01, -0.14, -0.14, -0.14, 29.18, 0
223436, 223436564, -0.84, -0.01, -0.01, -0.2, -0.2, -0.2, 29.18, 0
223650, 223650559, -0.72, -0.01, -0.01, -0.22, -0.22, -0.22, 29.18, 0
223865, 223865565, -0.89, -0.01, -0.01, -0.19, -0.19, -0.19, 29.28, 0
224076, 224076566, -0.83, -0.01, -0.01, -0.21, -0.21, -0.21, 29.33, 0
224372, 224372564, -0.82, -0.01, -0.01, -0.14, -0.14, -0.14, 29.23, 0
224512, 224512566, -0.77, -0.01, -0.01, -0.12, -0.12, -0.12, 29.23, 0
224722, 224722564, -0.8, -0.01, -0.01, -0.13, -0.13, -0.13, 29.18, 0
225009, 225009564, -0.66, -0.01, -0.01, -0.23, -0.23, -0.23, 29.33, 0
225153, 225153565, -0.88, -0.01, -0.01, -0.1, -0.1, -0.1, 29.18, 0
225365, 225365564, -0.85, -0.01, -0.01, -0.03, -0.03, -0.03, 29.33, 0
225656, 225656564, -0.82, -0.01, -0.01, -0.1, -0.1, -0.1, 29.28, 0
225796, 225796564, -0.84, -0.01, -0.01, -0.08, -0.08, -0.08, 29.23, 0
226019, 226019564, -0.71, -0.01, -0.01, -0.15, -0.15, -0.15, 29.28, 0
226231, 226231568, -0.84, -0.01, -0.01, -0.16, -0.16, -0.16, 29.28, 0
226445, 226445565, -0.83, -0.01, -0.01, -0.22, -0.22, -0.22, 29.33, 0
226660, 226660558, -0.76, -0.01, -0.01, -0.14, -0.14, -0.14, 29.23, 0
226872, 226872564, -0.85, -0.01, -0.01, -0.07, -0.07, -0.07, 29.33, 0
227086, 227086564, -0.79, -0.01, -0.01, -0.02, -0.02, -0.02, 29.23, 0
227301, 227301566, -0.73, -0.01, -0.01, -0.12, -0.12, -0.12, 29.18, 0
227511, 227511564, -0.87, -0.01, -0.01, -0.24, -0.24, -0.24, 29.28, 0
227727, 227727559, -0.8, -0.01, -0.01, -0.11, -0.11, -0.11, 29.42, 0
228006, 228006560, -0.79, -0.01, -0.01, -0.1, -0.1, -0.1, 29.28, 0
228145, 228145564, -0.8, -0.01, -0.01, -0.21, -0.21, -0.21, 29.33, 0
228360, 228360564, -0.82, -0.01, -0.01, -0.18, -0.18, -0.18, 29.28, 0
228574, 228574568, -0.84, -0.01, -0.01, -0.19, -0.19, -0.19, 29.33, 0
228784, 228784567, -0.86, -0.01, -0.01, -0.21, -0.21, -0.21, 29.37, 0
229001, 229001559, -0.84, -0.01, -0.01, -0.1, -0.1, -0.1, 29.37, 0
229214, 229214565, -0.83, -0.01, -0.01, -0.23, -0.23, -0.23, 29.33, 0
229427, 229427558, -0.74, -0.01, -0.01, -0.18, -0.18, -0.18, 29.33, 0
229717, 229717560, -0.7, -0.01, -0.01, -0.22, -0.22, -0.22, 29.33, 0
229859, 229859564, -0.7, -0.01, -0.01, -0.24, -0.24, -0.24, 29.28, 0
230070, 230070566, -0.84, -0.01, -0.01, -0.26, -0.26, -0.26, 29.33, 0
230359, 230359560, -0.69, -0.01, -0.01, -0.2, -0.2, -0.2, 29.28, 0
230499, 230499564, -0.78, -0.01, -0.01, -0.22, -0.22, -0.22, 29.23, 0
230714, 230714567, -0.78, -0.01, -0.01, -0.25, -0.25, -0.25, 29.42, 0
230924, 230924558, -0.78, -0.01, -0.01, -0.3, -0.3, -0.3, 29.28, 0
0, 0, 0.0, 0.0, 0.0, 0.0, 0.0, 0.0, 0.0, 0
231356, 231356558, -0.75, -0.01, -0.01, -0.19, -0.19, -0.19, 29.33, 0
231574, 231574559, -0.76, -0.01, -0.01, -0.16, -0.16, -0.16, 29.42, 0
231865, 231865564, -0.75, -0.01, -0.01, -0.18, -0.18, -0.18, 29.23, 0
232007, 232007558, -0.76, -0.01, -0.01, -0.08, -0.08, -0.08, 29.18, 0
232223, 232223564, -0.74, -0.01, -0.01, -0.14, -0.14, -0.14, 29.28, 0
232434, 232434566, -0.7, -0.01, -0.01, -0.21, -0.21, -0.21, 29.23, 0
232724, 232724564, -0.77, -0.01, -0.01, -0.26, -0.26, -0.26, 29.28, 0
232866, 232866557, -0.73, -0.01, -0.01, -0.22, -0.22, -0.22, 29.23, 0
233078, 233078566, -0.79, -0.01, -0.01, -0.25, -0.25, -0.25, 29.28, 0
233373, 233373564, -0.86, -0.01, -0.01, -0.25, -0.25, -0.25, 29.23, 0
233514, 233514558, -0.7, -0.01, -0.01, -0.25, -0.25, -0.25, 29.37, 0
233726, 233726566, -0.69, -0.01, -0.01, -0.21, -0.21, -0.21, 29.42, 0
234015, 234015564, -0.79, -0.01, -0.01, -0.25, -0.25, -0.25, 29.37, 0
234158, 234158564, -0.83, -0.01, -0.01, -0.1, -0.1, -0.1, 29.42, 0
234368, 234368565, -0.79, -0.01, -0.01, -0.29, -0.29, -0.29, 29.28, 0
234660, 234660564, -0.89, -0.01, -0.01, -0.27, -0.27, -0.27, 29.33, 0
234801, 234801566, -0.79, -0.01, -0.01, -0.23, -0.23, -0.23, 29.37, 0
235022, 235022565, -0.75, -0.01, -0.01, -0.2, -0.2, -0.2, 29.28, 0
235309, 235309564, -0.84, -0.01, -0.01, -0.18, -0.18, -0.18, 29.37, 0
235448, 235448564, -0.85, -0.01, -0.01, -0.27, -0.27, -0.27, 29.23, 0
235663, 235663559, -0.79, -0.01, -0.01, -0.26, -0.26, -0.26, 29.37, 0
235874, 235874559, -0.77, -0.01, -0.01, -0.08, -0.08, -0.08, 29.28, 0
236089, 236089564, -0.81, -0.01, -0.01, -0.2, -0.2, -0.2, 29.23, 0
236303, 236303558, -0.73, -0.01, -0.01, -0.22, -0.22, -0.22, 29.33, 0
236513, 236513559, -0.73, -0.01, -0.01, -0.2, -0.2, -0.2, 29.33, 0
236731, 236731558, -0.74, -0.01, -0.01, -0.2, -0.2, -0.2, 29.33, 0
236945, 236945564, -0.88, -0.01, -0.01, -0.2, -0.2, -0.2, 29.28, 0
237237, 237237564, -0.93, -0.01, -0.01, -0.3, -0.3, -0.3, 29.23, 0
237374, 237374566, -0.81, -0.01, -0.01, -0.29, -0.29, -0.29, 29.23, 0
237590, 237590558, -0.71, -0.01, -0.01, -0.26, -0.26, -0.26, 29.42, 0
237880, 237880564, -0.7, -0.01, -0.01, -0.17, -0.17, -0.17, 29.33, 0
238021, 238021559, -0.75, -0.01, -0.01, -0.28, -0.28, -0.28, 29.37, 0
238309, 238309564, -0.76, -0.01, -0.01, -0.18, -0.18, -0.18, 29.33, 0
238451, 238451564, -0.71, -0.01, -0.01, -0.25, -0.25, -0.25, 29.37, 0
238742, 238742564, -0.75, -0.01, -0.01, -0.13, -0.13, -0.13, 29.28, 0
238883, 238883559, -0.79, -0.01, -0.01, -0.23, -0.23, -0.23, 29.33, 0
239098, 239098564, -0.77, -0.01, -0.01, -0.23, -0.23, -0.23, 29.42, 0
239309, 239309558, -0.71, -0.01, -0.01, -0.27, -0.27, -0.27, 29.37, 0
239522, 239522558, -0.81, -0.01, -0.01, -0.16, -0.16, -0.16, 29.37, 0
239739, 239739558, -0.79, -0.01, -0.01, -0.25, -0.25, -0.25, 29.37, 0
240028, 240028564, -0.8, -0.01, -0.01, -0.19, -0.19, -0.19, 29.37, 0
240168, 240168558, -0.8, -0.01, -0.01, -0.21, -0.21, -0.21, 29.23, 0
240461, 240461564, -0.76, -0.01, -0.01, -0.14, -0.14, -0.14, 29.33, 0
240600, 240600559, -0.73, -0.01, -0.01, -0.09, -0.09, -0.09, 29.33, 0
240811, 240811564, -0.73, -0.01, -0.01, -0.08, -0.08, -0.08, 29.47, 0
241029, 241029558, -0.72, -0.01, -0.01, -0.22, -0.22, -0.22, 29.37, 0
241317, 241317564, -0.72, -0.01, -0.01, -0.22, -0.22, -0.22, 29.37, 0
241455, 241455564, -0.86, -0.01, -0.01, -0.22, -0.22, -0.22, 29.42, 0
241671, 241671564, -0.73, -0.01, -0.01, -0.14, -0.14, -0.14, 29.33, 0
241885, 241885564, -0.81, -0.01, -0.01, -0.21, -0.21, -0.21, 29.37, 0
242178, 242178564, -0.72, -0.01, -0.01, -0.18, -0.18, -0.18, 29.33, 0
242319, 242319559, -0.79, -0.01, -0.01, -0.25, -0.25, -0.25, 29.42, 0
242536, 242536564, -0.79, -0.01, -0.01, -0.23, -0.23, -0.23, 29.42, 0
242827, 242827564, -0.77, -0.01, -0.01, -0.18, -0.18, -0.18, 29.42, 0
242964, 242964564, -0.86, -0.01, -0.01, -0.18, -0.18, -0.18, 29.37, 0
243179, 243179559, -0.73, -0.01, -0.01, -0.26, -0.26, -0.26, 29.47, 0
243469, 243469564, -0.72, -0.01, -0.01, -0.1, -0.1, -0.1, 29.37, 0
243606, 243606558, -0.8, -0.01, -0.01, -0.18, -0.18, -0.18, 29.33, 0
243823, 243823566, -0.85, -0.01, -0.01, -0.16, -0.16, -0.16, 29.42, 0
244041, 244041559, -0.84, -0.01, -0.01, -0.16, -0.16, -0.16, 29.47, 0
244333, 244333564, -0.84, -0.01, -0.01, -0.18, -0.18, -0.18, 29.42, 0
244475, 244475564, -0.77, -0.01, -0.01, -0.2, -0.2, -0.2, 29.42, 0
244691, 244691565, -0.86, -0.01, -0.01, -0.11, -0.11, -0.11, 29.42, 0
244979, 244979696, -0.79, -0.01, -0.01, -0.07, -0.07, -0.07, 29.47, 0
245128, 245128559, -0.72, -0.01, -0.01, -0.25, -0.25, -0.25, 29.47, 0
245342, 245342566, -0.82, -0.01, -0.01, -0.16, -0.16, -0.16, 29.37, 0
245554, 245554566, -0.77, -0.01, -0.01, -0.26, -0.26, -0.26, 29.37, 0
245851, 245851564, -0.93, -0.01, -0.01, -0.2, -0.2, -0.2, 29.42, 0
245995, 245995564, -0.73, -0.01, -0.01, -0.1, -0.1, -0.1, 29.37, 0
246289, 246289564, -0.8, -0.01, -0.01, -0.2, -0.2, -0.2, 29.47, 0
246427, 246427559, -0.67, -0.01, -0.01, -0.13, -0.13, -0.13, 29.33, 0
246720, 246720564, -0.83, -0.01, -0.01, -0.1, -0.1, -0.1, 29.33, 0
246862, 246862559, -0.83, -0.01, -0.01, -0.15, -0.15, -0.15, 29.37, 0
247073, 247073558, -0.76, -0.01, -0.01, -0.2, -0.2, -0.2, 29.42, 0
247370, 247370560, -0.63, -0.01, -0.01, -0.21, -0.21, -0.21, 29.47, 0
247512, 247512558, -1.17, -0.01, -0.01, -0.19, -0.19, -0.19, 29.42, 0
247801, 247801560, -1.78, -0.02, -0.02, -0.15, -0.15, -0.15, 29.51, 0
247941, 247941559, -1.18, -0.01, -0.01, -0.17, -0.17, -0.17, 29.37, 0
248161, 248161566, -1.42, -0.01, -0.01, -0.28, -0.28, -0.28, 29.37, 0
0, 0, 0.0, 0.0, 0.0, 0.0, 0.0, 0.0, 0.0, 0
0, 0, 0.0, 0.0, 0.0, 0.0, 0.0, 0.0, 0.0, 0
0, 0, 0.0, 0.0, 0.0, 0.0, 0.0, 0.0, 0.0, 0
0, 0, 0.0, 0.0, 0.0, 0.0, 0.0, 0.0, 0.0, 0
0, 0, 0.0, 0.0, 0.0, 0.0, 0.0, 0.0, 0.0, 0
0, 0, 0.0, 0.0, 0.0, 0.0, 0.0, 0.0, 0.0, 0
0, 0, 0.0, 0.0, 0.0, 0.0, 0.0, 0.0, 0.0, 0
0, 0, 0.0, 0.0, 0.0, 0.0, 0.0, 0.0, 0.0, 0
0, 0, 0.0, 0.0, 0.0, 0.0, 0.0, 0.0, 0.0, 0
0, 0, 0.0, 0.0, 0.0, 0.0, 0.0, 0.0, 0.0, 0
0, 0, 0.0, 0.0, 0.0, 0.0, 0.0, 0.0, 0.0, 0
0, 0, 0.0, 0.0, 0.0, 0.0, 0.0, 0.0, 0.0, 0
0, 0, 0.0, 0.0, 0.0, 0.0, 0.0, 0.0, 0.0, 0
0, 0, 0.0, 0.0, 0.0, 0.0, 0.0, 0.0, 0.0, 0
0, 0, 0.0, 0.0, 0.0, 0.0, 0.0, 0.0, 0.0, 0
0, 0, 0.0, 0.0, 0.0, 0.0, 0.0, 0.0, 0.0, 0
0, 0, 0.0, 0.0, 0.0, 0.0, 0.0, 0.0, 0.0, 0
0, 0, 0.0, 0.0, 0.0, 0.0, 0.0, 0.0, 0.0, 0
0, 0, 0.0, 0.0, 0.0, 0.0, 0.0, 0.0, 0.0, 0
0, 0, 0.0, 0.0, 0.0, 0.0, 0.0, 0.0, 0.0, 0
0, 0, 0.0, 0.0, 0.0, 0.0, 0.0, 0.0, 0.0, 0
0, 0, 0.0, 0.0, 0.0, 0.0, 0.0, 0.0, 0.0, 0
0, 0, 0.0, 0.0, 0.0, 0.0, 0.0, 0.0, 0.0, 0
0, 0, 0.0, 0.0, 0.0, 0.0, 0.0, 0.0, 0.0, 0
0, 0, 0.0, 0.0, 0.0, 0.0, 0.0, 0.0, 0.0, 0
0, 0, 0.0, 0.0, 0.0, 0.0, 0.0, 0.0, 0.0, 0
0, 0, 0.0, 0.0, 0.0, 0.0, 0.0, 0.0, 0.0, 0
0, 0, 0.0, 0.0, 0.0, 0.0, 0.0, 0.0, 0.0, 0
0, 0, 0.0, 0.0, 0.0, 0.0, 0.0, 0.0, 0.0, 0
0, 0, 0.0, 0.0, 0.0, 0.0, 0.0, 0.0, 0.0, 0
0, 0, 0.0, 0.0, 0.0, 0.0, 0.0, 0.0, 0.0, 0
0, 0, 0.0, 0.0, 0.0, 0.0, 0.0, 0.0, 0.0, 0
0, 0, 0.0, 0.0, 0.0, 0.0, 0.0, 0.0, 0.0, 0
0, 0, 0.0, 0.0, 0.0, 0.0, 0.0, 0.0, 0.0, 0
0, 0, 0.0, 0.0, 0.0, 0.0, 0.0, 0.0, 0.0, 0
0, 0, 0.0, 0.0, 0.0, 0.0, 0.0, 0.0, 0.0, 0
0, 0, 0.0, 0.0, 0.0, 0.0, 0.0, 0.0, 0.0, 0
0, 0, 0.0, 0.0, 0.0, 0.0, 0.0, 0.0, 0.0, 0
0, 0, 0.0, 0.0, 0.0, 0.0, 0.0, 0.0, 0.0, 0
0, 0, 0.0, 0.0, 0.0, 0.0, 0.0, 0.0, 0.0, 0
0, 0, 0.0, 0.0, 0.0, 0.0, 0.0, 0.0, 0.0, 0
0, 0, 0.0, 0.0, 0.0, 0.0, 0.0, 0.0, 0.0, 0
0, 0, 0.0, 0.0, 0.0, 0.0, 0.0, 0.0, 0.0, 0
0, 0, 0.0, 0.0, 0.0, 0.0, 0.0, 0.0, 0.0, 0
0, 0, 0.0, 0.0, 0.0, 0.0, 0.0, 0.0, 0.0, 0
0, 0, 0.0, 0.0, 0.0, 0.0, 0.0, 0.0, 0.0, 0
0, 0, 0.0, 0.0, 0.0, 0.0, 0.0, 0.0, 0.0, 0
0, 0, 0.0, 0.0, 0.0, 0.0, 0.0, 0.0, 0.0, 0
0, 0, 0.0, 0.0, 0.0, 0.0, 0.0, 0.0, 0.0, 0
0, 0, 0.0, 0.0, 0.0, 0.0, 0.0, 0.0, 0.0, 0
0, 0, 0.0, 0.0, 0.0, 0.0, 0.0, 0.0, 0.0, 0
0, 0, 0.0, 0.0, 0.0, 0.0, 0.0, 0.0, 0.0, 0
0, 0, 0.0, 0.0, 0.0, 0.0, 0.0, 0.0, 0.0, 0
0, 0, 0.0, 0.0, 0.0, 0.0, 0.0, 0.0, 0.0, 0
0, 0, 0.0, 0.0, 0.0, 0.0, 0.0, 0.0, 0.0, 0
0, 0, 0.0, 0.0, 0.0, 0.0, 0.0, 0.0, 0.0, 0
0, 0, 0.0, 0.0, 0.0, 0.0, 0.0, 0.0, 0.0, 0
0, 0, 0.0, 0.0, 0.0, 0.0, 0.0, 0.0, 0.0, 0
0, 0, 0.0, 0.0, 0.0, 0.0, 0.0, 0.0, 0.0, 0
0, 0, 0.0, 0.0, 0.0, 0.0, 0.0, 0.0, 0.0, 0
0, 0, 0.0, 0.0, 0.0, 0.0, 0.0, 0.0, 0.0, 0
0, 0, 0.0, 0.0, 0.0, 0.0, 0.0, 0.0, 0.0, 0
0, 0, 0.0, 0.0, 0.0, 0.0, 0.0, 0.0, 0.0, 0
0, 0, 0.0, 0.0, 0.0, 0.0, 0.0, 0.0, 0.0, 0
0, 0, 0.0, 0.0, 0.0, 0.0, 0.0, 0.0, 0.0, 0
0, 0, 0.0, 0.0, 0.0, 0.0, 0.0, 0.0, 0.0, 0
0, 0, 0.0, 0.0, 0.0, 0.0, 0.0, 0.0, 0.0, 0
0, 0, 0.0, 0.0, 0.0, 0.0, 0.0, 0.0, 0.0, 0
0, 0, 0.0, 0.0, 0.0, 0.0, 0.0, 0.0, 0.0, 0
0, 0, 0.0, 0.0, 0.0, 0.0, 0.0, 0.0, 0.0, 0
0, 0, 0.0, 0.0, 0.0, 0.0, 0.0, 0.0, 0.0, 0
0, 0, 0.0, 0.0, 0.0, 0.0, 0.0, 0.0, 0.0, 0
0, 0, 0.0, 0.0, 0.0, 0.0, 0.0, 0.0, 0.0, 0
0, 0, 0.0, 0.0, 0.0, 0.0, 0.0, 0.0, 0.0, 0
0, 0, 0.0, 0.0, 0.0, 0.0, 0.0, 0.0, 0.0, 0
0, 0, 0.0, 0.0, 0.0, 0.0, 0.0, 0.0, 0.0, 0
0, 0, 0.0, 0.0, 0.0, 0.0, 0.0, 0.0, 0.0, 0
0, 0, 0.0, 0.0, 0.0, 0.0, 0.0, 0.0, 0.0, 0
0, 0, 0.0, 0.0, 0.0, 0.0, 0.0, 0.0, 0.0, 0
0, 0, 0.0, 0.0, 0.0, 0.0, 0.0, 0.0, 0.0, 0
0, 0, 0.0, 0.0, 0.0, 0.0, 0.0, 0.0, 0.0, 0
0, 0, 0.0, 0.0, 0.0, 0.0, 0.0, 0.0, 0.0, 0
0, 0, 0.0, 0.0, 0.0, 0.0, 0.0, 0.0, 0.0, 0
0, 0, 0.0, 0.0, 0.0, 0.0, 0.0, 0.0, 0.0, 0
0, 0, 0.0, 0.0, 0.0, 0.0, 0.0, 0.0, 0.0, 0
0, 0, 0.0, 0.0, 0.0, 0.0, 0.0, 0.0, 0.0, 0
0, 0, 0.0, 0.0, 0.0, 0.0, 0.0, 0.0, 0.0, 0
0, 0, 0.0, 0.0, 0.0, 0.0, 0.0, 0.0, 0.0, 0
0, 0, 0.0, 0.0, 0.0, 0.0, 0.0, 0.0, 0.0, 0
0, 0, 0.0, 0.0, 0.0, 0.0, 0.0, 0.0, 0.0, 0
0, 0, 0.0, 0.0, 0.0, 0.0, 0.0, 0.0, 0.0, 0
0, 0, 0.0, 0.0, 0.0, 0.0, 0.0, 0.0, 0.0, 0
0, 0, 0.0, 0.0, 0.0, 0.0, 0.0, 0.0, 0.0, 0
0, 0, 0.0, 0.0, 0.0, 0.0, 0.0, 0.0, 0.0, 0
0, 0, 0.0, 0.0, 0.0, 0.0, 0.0, 0.0, 0.0, 0
0, 0, 0.0, 0.0, 0.0, 0.0, 0.0, 0.0, 0.0, 0
0, 0, 0.0, 0.0, 0.0, 0.0, 0.0, 0.0, 0.0, 0
0, 0, 0.0, 0.0, 0.0, 0.0, 0.0, 0.0, 0.0, 0
0, 0, 0.0, 0.0, 0.0, 0.0, 0.0, 0.0, 0.0, 0
0, 0, 0.0, 0.0, 0.0, 0.0, 0.0, 0.0, 0.0, 0
0, 0, 0.0, 0.0, 0.0, 0.0, 0.0, 0.0, 0.0, 0
0, 0, 0.0, 0.0, 0.0, 0.0, 0.0, 0.0, 0.0, 0
0, 0, 0.0, 0.0, 0.0, 0.0, 0.0, 0.0, 0.0, 0
0, 0, 0.0, 0.0, 0.0, 0.0, 0.0, 0.0, 0.0, 0
0, 0, 0.0, 0.0, 0.0, 0.0, 0.0, 0.0, 0.0, 0
0, 0, 0.0, 0.0, 0.0, 0.0, 0.0, 0.0, 0.0, 0
0, 0, 0.0, 0.0, 0.0, 0.0, 0.0, 0.0, 0.0, 0
0, 0, 0.0, 0.0, 0.0, 0.0, 0.0, 0.0, 0.0, 0
0, 0, 0.0, 0.0, 0.0, 0.0, 0.0, 0.0, 0.0, 0
0, 0, 0.0, 0.0, 0.0, 0.0, 0.0, 0.0, 0.0, 0
0, 0, 0.0, 0.0, 0.0, 0.0, 0.0, 0.0, 0.0, 0
0, 0, 0.0, 0.0, 0.0, 0.0, 0.0, 0.0, 0.0, 0
0, 0, 0.0, 0.0, 0.0, 0.0, 0.0, 0.0, 0.0, 0
0, 0, 0.0, 0.0, 0.0, 0.0, 0.0, 0.0, 0.0, 0
0, 0, 0.0, 0.0, 0.0, 0.0, 0.0, 0.0, 0.0, 0
0, 0, 0.0, 0.0, 0.0, 0.0, 0.0, 0.0, 0.0, 0
0, 0, 0.0, 0.0, 0.0, 0.0, 0.0, 0.0, 0.0, 0
0, 0, 0.0, 0.0, 0.0, 0.0, 0.0, 0.0, 0.0, 0
0, 0, 0.0, 0.0, 0.0, 0.0, 0.0, 0.0, 0.0, 0
0, 0, 0.0, 0.0, 0.0, 0.0, 0.0, 0.0, 0.0, 0
0, 0, 0.0, 0.0, 0.0, 0.0, 0.0, 0.0, 0.0, 0
0, 0, 0.0, 0.0, 0.0, 0.0, 0.0, 0.0, 0.0, 0
0, 0, 0.0, 0.0, 0.0, 0.0, 0.0, 0.0, 0.0, 0
0, 0, 0.0, 0.0, 0.0, 0.0, 0.0, 0.0, 0.0, 0
0, 0, 0.0, 0.0, 0.0, 0.0, 0.0, 0.0, 0.0, 0
0, 0, 0.0, 0.0, 0.0, 0.0, 0.0, 0.0, 0.0, 0
0, 0, 0.0, 0.0, 0.0, 0.0, 0.0, 0.0, 0.0, 0
0, 0, 0.0, 0.0, 0.0, 0.0, 0.0, 0.0, 0.0, 0
0, 0, 0.0, 0.0, 0.0, 0.0, 0.0, 0.0, 0.0, 0
0, 0, 0.0, 0.0, 0.0, 0.0, 0.0, 0.0, 0.0, 0
0, 0, 0.0, 0.0, 0.0, 0.0, 0.0, 0.0, 0.0, 0
0, 0, 0.0, 0.0, 0.0, 0.0, 0.0, 0.0, 0.0, 0
0, 0, 0.0, 0.0, 0.0, 0.0, 0.0, 0.0, 0.0, 0
0, 0, 0.0, 0.0, 0.0, 0.0, 0.0, 0.0, 0.0, 0
0, 0, 0.0, 0.0, 0.0, 0.0, 0.0, 0.0, 0.0, 0
0, 0, 0.0, 0.0, 0.0, 0.0, 0.0, 0.0, 0.0, 0
0, 0, 0.0, 0.0, 0.0, 0.0, 0.0, 0.0, 0.0, 0
0, 0, 0.0, 0.0, 0.0, 0.0, 0.0, 0.0, 0.0, 0
0, 0, 0.0, 0.0, 0.0, 0.0, 0.0, 0.0, 0.0, 0
0, 0, 0.0, 0.0, 0.0, 0.0, 0.0, 0.0, 0.0, 0
0, 0, 0.0, 0.0, 0.0, 0.0, 0.0, 0.0, 0.0, 0
0, 0, 0.0, 0.0, 0.0, 0.0, 0.0, 0.0, 0.0, 0
0, 0, 0.0, 0.0, 0.0, 0.0, 0.0, 0.0, 0.0, 0
0, 0, 0.0, 0.0, 0.0, 0.0, 0.0, 0.0, 0.0, 0
0, 0, 0.0, 0.0, 0.0, 0.0, 0.0, 0.0, 0.0, 0
0, 0, 0.0, 0.0, 0.0, 0.0, 0.0, 0.0, 0.0, 0
0, 0, 0.0, 0.0, 0.0, 0.0, 0.0, 0.0, 0.0, 0
0, 0, 0.0, 0.0, 0.0, 0.0, 0.0, 0.0, 0.0, 0
0, 0, 0.0, 0.0, 0.0, 0.0, 0.0, 0.0, 0.0, 0
0, 0, 0.0, 0.0, 0.0, 0.0, 0.0, 0.0, 0.0, 0
0, 0, 0.0, 0.0, 0.0, 0.0, 0.0, 0.0, 0.0, 0
0, 0, 0.0, 0.0, 0.0, 0.0, 0.0, 0.0, 0.0, 0
0, 0, 0.0, 0.0, 0.0, 0.0, 0.0, 0.0, 0.0, 0
0, 0, 0.0, 0.0, 0.0, 0.0, 0.0, 0.0, 0.0, 0
0, 0, 0.0, 0.0, 0.0, 0.0, 0.0, 0.0, 0.0, 0
0, 0, 0.0, 0.0, 0.0, 0.0, 0.0, 0.0, 0.0, 0
0, 0, 0.0, 0.0, 0.0, 0.0, 0.0, 0.0, 0.0, 0
0, 0, 0.0, 0.0, 0.0, 0.0, 0.0, 0.0, 0.0, 0
0, 0, 0.0, 0.0, 0.0, 0.0, 0.0, 0.0, 0.0, 0
0, 0, 0.0, 0.0, 0.0, 0.0, 0.0, 0.0, 0.0, 0
0, 0, 0.0, 0.0, 0.0, 0.0, 0.0, 0.0, 0.0, 0
0, 0, 0.0, 0.0, 0.0, 0.0, 0.0, 0.0, 0.0, 0
0, 0, 0.0, 0.0, 0.0, 0.0, 0.0, 0.0, 0.0, 0
0, 0, 0.0, 0.0, 0.0, 0.0, 0.0, 0.0, 0.0, 0
0, 0, 0.0, 0.0, 0.0, 0.0, 0.0, 0.0, 0.0, 0
0, 0, 0.0, 0.0, 0.0, 0.0, 0.0, 0.0, 0.0, 0
0, 0, 0.0, 0.0, 0.0, 0.0, 0.0, 0.0, 0.0, 0
0, 0, 0.0, 0.0, 0.0, 0.0, 0.0, 0.0, 0.0, 0
0, 0, 0.0, 0.0, 0.0, 0.0, 0.0, 0.0, 0.0, 0
0, 0, 0.0, 0.0, 0.0, 0.0, 0.0, 0.0, 0.0, 0
0, 0, 0.0, 0.0, 0.0, 0.0, 0.0, 0.0, 0.0, 0
0, 0, 0.0, 0.0, 0.0, 0.0, 0.0, 0.0, 0.0, 0
0, 0, 0.0, 0.0, 0.0, 0.0, 0.0, 0.0, 0.0, 0
0, 0, 0.0, 0.0, 0.0, 0.0, 0.0, 0.0, 0.0, 0
0, 0, 0.0, 0.0, 0.0, 0.0, 0.0, 0.0, 0.0, 0
0, 0, 0.0, 0.0, 0.0, 0.0, 0.0, 0.0, 0.0, 0
0, 0, 0.0, 0.0, 0.0, 0.0, 0.0, 0.0, 0.0, 0
0, 0, 0.0, 0.0, 0.0, 0.0, 0.0, 0.0, 0.0, 0
0, 0, 0.0, 0.0, 0.0, 0.0, 0.0, 0.0, 0.0, 0
0, 0, 0.0, 0.0, 0.0, 0.0, 0.0, 0.0, 0.0, 0
0, 0, 0.0, 0.0, 0.0, 0.0, 0.0, 0.0, 0.0, 0
0, 0, 0.0, 0.0, 0.0, 0.0, 0.0, 0.0, 0.0, 0
0, 0, 0.0, 0.0, 0.0, 0.0, 0.0, 0.0, 0.0, 0
0, 0, 0.0, 0.0, 0.0, 0.0, 0.0, 0.0, 0.0, 0
0, 0, 0.0, 0.0, 0.0, 0.0, 0.0, 0.0, 0.0, 0
0, 0, 0.0, 0.0, 0.0, 0.0, 0.0, 0.0, 0.0, 0
0, 0, 0.0, 0.0, 0.0, 0.0, 0.0, 0.0, 0.0, 0
0, 0, 0.0, 0.0, 0.0, 0.0, 0.0, 0.0, 0.0, 0
0, 0, 0.0, 0.0, 0.0, 0.0, 0.0, 0.0, 0.0, 0
0, 0, 0.0, 0.0, 0.0, 0.0, 0.0, 0.0, 0.0, 0
0, 0, 0.0, 0.0, 0.0, 0.0, 0.0, 0.0, 0.0, 0
0, 0, 0.0, 0.0, 0.0, 0.0, 0.0, 0.0, 0.0, 0
0, 0, 0.0, 0.0, 0.0, 0.0, 0.0, 0.0, 0.0, 0
0, 0, 0.0, 0.0, 0.0, 0.0, 0.0, 0.0, 0.0, 0
0, 0, 0.0, 0.0, 0.0, 0.0, 0.0, 0.0, 0.0, 0
0, 0, 0.0, 0.0, 0.0, 0.0, 0.0, 0.0, 0.0, 0
0, 0, 0.0, 0.0, 0.0, 0.0, 0.0, 0.0, 0.0, 0
0, 0, 0.0, 0.0, 0.0, 0.0, 0.0, 0.0, 0.0, 0
0, 0, 0.0, 0.0, 0.0, 0.0, 0.0, 0.0, 0.0, 0
0, 0, 0.0, 0.0, 0.0, 0.0, 0.0, 0.0, 0.0, 0
0, 0, 0.0, 0.0, 0.0, 0.0, 0.0, 0.0, 0.0, 0
0, 0, 0.0, 0.0, 0.0, 0.0, 0.0, 0.0, 0.0, 0
0, 0, 0.0, 0.0, 0.0, 0.0, 0.0, 0.0, 0.0, 0
0, 0, 0.0, 0.0, 0.0, 0.0, 0.0, 0.0, 0.0, 0
0, 0, 0.0, 0.0, 0.0, 0.0, 0.0, 0.0, 0.0, 0
0, 0, 0.0, 0.0, 0.0, 0.0, 0.0, 0.0, 0.0, 0
0, 0, 0.0, 0.0, 0.0, 0.0, 0.0, 0.0, 0.0, 0
0, 0, 0.0, 0.0, 0.0, 0.0, 0.0, 0.0, 0.0, 0
0, 0, 0.0, 0.0, 0.0, 0.0, 0.0, 0.0, 0.0, 0
0, 0, 0.0, 0.0, 0.0, 0.0, 0.0, 0.0, 0.0, 0
0, 0, 0.0, 0.0, 0.0, 0.0, 0.0, 0.0, 0.0, 0
0, 0, 0.0, 0.0, 0.0, 0.0, 0.0, 0.0, 0.0, 0
0, 0, 0.0, 0.0, 0.0, 0.0, 0.0, 0.0, 0.0, 0
0, 0, 0.0, 0.0, 0.0, 0.0, 0.0, 0.0, 0.0, 0
0, 0, 0.0, 0.0, 0.0, 0.0, 0.0, 0.0, 0.0, 0
0, 0, 0.0, 0.0, 0.0, 0.0, 0.0, 0.0, 0.0, 0
0, 0, 0.0, 0.0, 0.0, 0.0, 0.0, 0.0, 0.0, 0
0, 0, 0.0, 0.0, 0.0, 0.0, 0.0, 0.0, 0.0, 0
0, 0, 0.0, 0.0, 0.0, 0.0, 0.0, 0.0, 0.0, 0
0, 0, 0.0, 0.0, 0.0, 0.0, 0.0, 0.0, 0.0, 0
0, 0, 0.0, 0.0, 0.0, 0.0, 0.0, 0.0, 0.0, 0
0, 0, 0.0, 0.0, 0.0, 0.0, 0.0, 0.0, 0.0, 0
0, 0, 0.0, 0.0, 0.0, 0.0, 0.0, 0.0, 0.0, 0
0, 0, 0.0, 0.0, 0.0, 0.0, 0.0, 0.0, 0.0, 0
0, 0, 0.0, 0.0, 0.0, 0.0, 0.0, 0.0, 0.0, 0
0, 0, 0.0, 0.0, 0.0, 0.0, 0.0, 0.0, 0.0, 0
0, 0, 0.0, 0.0, 0.0, 0.0, 0.0, 0.0, 0.0, 0
0, 0, 0.0, 0.0, 0.0, 0.0, 0.0, 0.0, 0.0, 0
0, 0, 0.0, 0.0, 0.0, 0.0, 0.0, 0.0, 0.0, 0
0, 0, 0.0, 0.0, 0.0, 0.0, 0.0, 0.0, 0.0, 0
0, 0, 0.0, 0.0, 0.0, 0.0, 0.0, 0.0, 0.0, 0
0, 0, 0.0, 0.0, 0.0, 0.0, 0.0, 0.0, 0.0, 0
0, 0, 0.0, 0.0, 0.0, 0.0, 0.0, 0.0, 0.0, 0
0, 0, 0.0, 0.0, 0.0, 0.0, 0.0, 0.0, 0.0, 0
0, 0, 0.0, 0.0, 0.0, 0.0, 0.0, 0.0, 0.0, 0
0, 0, 0.0, 0.0, 0.0, 0.0, 0.0, 0.0, 0.0, 0
0, 0, 0.0, 0.0, 0.0, 0.0, 0.0, 0.0, 0.0, 0
0, 0, 0.0, 0.0, 0.0, 0.0, 0.0, 0.0, 0.0, 0
0, 0, 0.0, 0.0, 0.0, 0.0, 0.0, 0.0, 0.0, 0
0, 0, 0.0, 0.0, 0.0, 0.0, 0.0, 0.0, 0.0, 0
6670, 6670569, -0.52, -0.01, -0.01, 0.03, 0.03, 0.03, 28.2, 0
6873, 6873572, -68, 978, -21024, -6, -3, 1610612738, 762, 1
7012, 7012572, -0.63, -0.01, -0.01, -0.16, -0.16, -0.16, 28.01, 0
7306, 7306572, -0.63, -0.01, -0.01, -0.26, -0.26, -0.26, 28.24, 0
7448, 7448573, -0.52, -0.01, -0.01, -0.18, -0.18, -0.18, 28.15, 0
7742, 7742572, -0.67, -0.01, -0.01, -0.23, -0.23, -0.23, 28.1, 0
7884, 7884576, -0.64, -0.01, -0.01, -0.26, -0.26, -0.26, 28.15, 0
8103, 8103572, -0.74, -0.01, -0.01, -0.12, -0.12, -0.12, 28.2, 0
8392, 8392572, -0.72, -0.01, -0.01, -0.14, -0.14, -0.14, 28.15, 0
8534, 8534572, -0.69, -0.01, -0.01, -0.15, -0.15, -0.15, 28.24, 0
8748, 8748567, -0.5, -0.01, -0.01, -0.22, -0.22, -0.22, 28.2, 0
8960, 8960572, -0.51, -0.01, -0.01, -0.14, -0.14, -0.14, 28.24, 0
9175, 9175566, -0.56, -0.01, -0.01, -0.13, -0.13, -0.13, 28.2, 0
9468, 9468572, -0.53, -0.01, -0.01, -0.17, -0.17, -0.17, 28.15, 0
9608, 9608567, -0.51, -0.01, -0.01, -0.2, -0.2, -0.2, 28.2, 0
9824, 9824573, -0.73, -0.01, -0.01, -0.12, -0.12, -0.12, 28.24, 0
10041, 10041573, -0.68, -0.01, -0.01, -0.15, -0.15, -0.15, 28.15, 0
10334, 10334572, -0.71, -0.01, -0.01, -0.15, -0.15, -0.15, 28.2, 0
10476, 10476567, -0.55, -0.01, -0.01, -0.21, -0.21, -0.21, 28.1, 0
10772, 10772572, -0.67, -0.01, -0.01, -0.13, -0.13, -0.13, 28.24, 0
10910, 10910573, -0.63, -0.01, -0.01, -0.04, -0.04, -0.04, 28.15, 0
11127, 11127572, -0.54, -0.01, -0.01, -0.21, -0.21, -0.21, 28.24, 0
11419, 11419572, -0.64, -0.01, -0.01, -0.23, -0.23, -0.23, 28.24, 0
11559, 11559567, -0.59, -0.01, -0.01, -0.18, -0.18, -0.18, 28.24, 0
11855, 11855572, -0.59, -0.01, -0.01, -0.19, -0.19, -0.19, 28.24, 0
11993, 11993572, -0.69, -0.01, -0.01, -0.3, -0.3, -0.3, 28.24, 0
12286, 12286572, -0.5, -0.01, -0.01, -0.21, -0.21, -0.21, 28.2, 0
12428, 12428576, -0.5, -0.01, -0.01, -0.12, -0.12, -0.12, 28.1, 0
12643, 12643574, -0.65, -0.01, -0.01, -0.25, -0.25, -0.25, 28.24, 0
12937, 12937572, -0.61, -0.01, -0.01, -0.12, -0.12, -0.12, 28.15, 0
13079, 13079574, -0.63, -0.01, -0.01, -0.23, -0.23, -0.23, 28.15, 0
13372, 13372572, -0.75, -0.01, -0.01, -0.22, -0.22, -0.22, 28.2, 0
13513, 13513574, -0.63, -0.01, -0.01, -0.15, -0.15, -0.15, 28.2, 0
13808, 13808572, -0.68, -0.01, -0.01, -0.07, -0.07, -0.07, 28.15, 0
13946, 13946567, -0.42, -0.0, -0.0, -0.25, -0.25, -0.25, 28.2, 0
14239, 14239572, -0.62, -0.01, -0.01, -0.07, -0.07, -0.07, 28.2, 0
14380, 14380573, -0.71, -0.01, -0.01, -0.15, -0.15, -0.15, 28.24, 0
14593, 14593573, -0.62, -0.01, -0.01, -0.24, -0.24, -0.24, 28.1, 0
14886, 14886572, -0.54, -0.01, -0.01, -0.18, -0.18, -0.18, 28.15, 0
15029, 15029572, -0.73, -0.01, -0.01, -0.18, -0.18, -0.18, 28.1, 0
15244, 15244573, -0.53, -0.01, -0.01, -0.18, -0.18, -0.18, 28.15, 0
15462, 15462572, -0.62, -0.01, -0.01, -0.17, -0.17, -0.17, 28.15, 0
15757, 15757572, -0.65, -0.01, -0.01, -0.25, -0.25, -0.25, 28.15, 0
15895, 15895573, -0.53, -0.01, -0.01, -0.05, -0.05, -0.05, 28.1, 0
16188, 16188572, -0.68, -0.01, -0.01, -0.05, -0.05, -0.05, 28.15, 0
16329, 16329573, -0.69, -0.01, -0.01, -0.18, -0.18, -0.18, 28.24, 0
16540, 16540566, -0.63, -0.01, -0.01, -0.2, -0.2, -0.2, 28.05, 0
16833, 16833572, -0.5, -0.01, -0.01, -0.18, -0.18, -0.18, 28.15, 0
16975, 16975567, -0.5, -0.01, -0.01, -0.19, -0.19, -0.19, 28.2, 0
17271, 17271572, -0.64, -0.01, -0.01, -0.11, -0.11, -0.11, 28.05, 0
17409, 17409572, -0.67, -0.01, -0.01, -0.13, -0.13, -0.13, 28.15, 0
17628, 17628574, -0.72, -0.01, -0.01, -0.24, -0.24, -0.24, 28.1, 0
17921, 17921572, -0.7, -0.01, -0.01, -0.15, -0.15, -0.15, 28.15, 0
18059, 18059576, -0.67, -0.01, -0.01, -0.23, -0.23, -0.23, 28.2, 0
18276, 18276574, -0.6, -0.01, -0.01, -0.24, -0.24, -0.24, 28.15, 0
18488, 18488574, -0.7, -0.01, -0.01, -0.23, -0.23, -0.23, 28.24, 0
18697, 18697573, -0.68, -0.01, -0.01, -0.16, -0.16, -0.16, 28.15, 0
18918, 18918574, -0.68, -0.01, -0.01, -0.21, -0.21, -0.21, 28.1, 0
19207, 19207572, -0.76, -0.01, -0.01, -0.17, -0.17, -0.17, 28.15, 0
19354, 19354566, -0.54, -0.01, -0.01, -0.09, -0.09, -0.09, 28.2, 0
19572, 19572573, -0.45, -0.0, -0.0, -0.24, -0.24, -0.24, 28.05, 0
19787, 19787574, -0.62, -0.01, -0.01, -0.13, -0.13, -0.13, 28.2, 0
20081, 20081572, -0.57, -0.01, -0.01, -0.08, -0.08, -0.08, 28.15, 0
20223, 20223572, -0.51, -0.01, -0.01, -0.1, -0.1, -0.1, 28.2, 0
20512, 20512572, -0.53, -0.01, -0.01, -0.05, -0.05, -0.05, 28.2, 0
20662, 20662573, -0.48, -0.0, -0.0, -0.03, -0.03, -0.03, 28.2, 0
20954, 20954572, -0.64, -0.01, -0.01, -0.1, -0.1, -0.1, 28.2, 0
21092, 21092567, -0.51, -0.01, -0.01, -0.14, -0.14, -0.14, 28.2, 0
21385, 21385572, -0.71, -0.01, -0.01, -0.22, -0.22, -0.22, 28.15, 0
21529, 21529573, -0.62, -0.01, -0.01, -0.18, -0.18, -0.18, 28.15, 0
21819, 21819572, -0.58, -0.01, -0.01, -0.09, -0.09, -0.09, 28.2, 0
21959, 21959573, -0.59, -0.01, -0.01, -0.08, -0.08, -0.08, 28.2, 0
22174, 22174574, -0.64, -0.01, -0.01, -0.18, -0.18, -0.18, 28.2, 0
22465, 22465572, -0.77, -0.01, -0.01, -0.19, -0.19, -0.19, 28.15, 0
22611, 22611573, -0.52, -0.01, -0.01, -0.26, -0.26, -0.26, 28.2, 0
22903, 22903572, -0.68, -0.01, -0.01, -0.19, -0.19, -0.19, 28.2, 0
23041, 23041574, -0.47, -0.0, -0.0, -0.19, -0.19, -0.19, 28.2, 0
23335, 23335572, -0.72, -0.01, -0.01, -0.17, -0.17, -0.17, 28.2, 0
23477, 23477574, -0.67, -0.01, -0.01, -0.2, -0.2, -0.2, 28.2, 0
23770, 23770572, -0.55, -0.01, -0.01, -0.12, -0.12, -0.12, 28.1, 0
23913, 23913572, -0.66, -0.01, -0.01, -0.21, -0.21, -0.21, 28.2, 0
24130, 24130574, -0.57, -0.01, -0.01, -0.21, -0.21, -0.21, 28.2, 0
24423, 24423572, -0.7, -0.01, -0.01, -0.14, -0.14, -0.14, 28.24, 0
24565, 24565572, -0.67, -0.01, -0.01, -0.28, -0.28, -0.28, 28.2, 0
24780, 24780567, -0.58, -0.01, -0.01, -0.21, -0.21, -0.21, 28.15, 0
25069, 25069572, -0.47, -0.0, -0.0, -0.29, -0.29, -0.29, 28.2, 0
25211, 25211573, -0.5, -0.01, -0.01, -0.2, -0.2, -0.2, 28.2, 0
25427, 25427567, -0.63, -0.01, -0.01, -0.19, -0.19, -0.19, 28.2, 0
25718, 25718572, -0.55, -0.01, -0.01, -0.27, -0.27, -0.27, 28.24, 0
25860, 25860566, -0.6, -0.01, -0.01, -0.25, -0.25, -0.25, 28.34, 0
26155, 26155572, -0.67, -0.01, -0.01, -0.16, -0.16, -0.16, 28.2, 0
26293, 26293574, -0.67, -0.01, -0.01, -0.28, -0.28, -0.28, 28.2, 0
26583, 26583572, -0.69, -0.01, -0.01, -0.24, -0.24, -0.24, 28.34, 0
26727, 26727574, -0.66, -0.01, -0.01, -0.22, -0.22, -0.22, 28.2, 0
26939, 26939566, -0.55, -0.01, -0.01, -0.23, -0.23, -0.23, 28.24, 0
27233, 27233572, -0.65, -0.01, -0.01, -0.16, -0.16, -0.16, 28.29, 0
27378, 27378579, -0.52, -0.01, -0.01, -0.21, -0.21, -0.21, 28.34, 0
27672, 27672572, -0.56, -0.01, -0.01, -0.11, -0.11, -0.11, 28.29, 0
27815, 27815573, -0.75, -0.01, -0.01, -0.27, -0.27, -0.27, 28.2, 0
28109, 28109572, -0.48, -0.0, -0.0, -0.22, -0.22, -0.22, 28.2, 0
28247, 28247573, -0.65, -0.01, -0.01, -0.25, -0.25, -0.25, 28.34, 0
28540, 28540473, -0.5, -0.01, -0.01, -0.22, -0.22, -0.22, 28.29, 0
28684, 28684572, -0.76, -0.01, -0.01, -0.24, -0.24, -0.24, 28.24, 0
28973, 28973572, -0.74, -0.01, -0.01, -0.22, -0.22, -0.22, 28.24, 0
29115, 29115572, -0.68, -0.01, -0.01, -0.14, -0.14, -0.14, 28.24, 0
29331, 29331576, -0.6, -0.01, -0.01, -0.2, -0.2, -0.2, 28.34, 0
29546, 29546593, -0.5, -0.01, -0.01, -0.29, -0.29, -0.29, 28.29, 0
29766, 29766572, -0.69, -0.01, -0.01, -0.2, -0.2, -0.2, 28.2, 0
29981, 29981573, -0.57, -0.01, -0.01, -0.25, -0.25, -0.25, 28.38, 0
30270, 30270572, -0.47, -0.0, -0.0, -0.19, -0.19, -0.19, 28.38, 0
30412, 30412574, -0.62, -0.01, -0.01, -0.14, -0.14, -0.14, 28.24, 0
30630, 30630574, -0.56, -0.01, -0.01, -0.16, -0.16, -0.16, 28.34, 0
30919, 30919572, -0.62, -0.01, -0.01, -0.12, -0.12, -0.12, 28.34, 0
31061, 31061572, -0.55, -0.01, -0.01, -0.27, -0.27, -0.27, 28.29, 0
31278, 31278572, -0.51, -0.01, -0.01, -0.17, -0.17, -0.17, 28.34, 0
31569, 31569572, -0.51, -0.01, -0.01, -0.23, -0.23, -0.23, 28.38, 0
31713, 31713572, -0.71, -0.01, -0.01, -0.26, -0.26, -0.26, 28.34, 0
31929, 31929572, -0.52, -0.01, -0.01, -0.23, -0.23, -0.23, 28.29, 0
32218, 32218572, -0.47, -0.0, -0.0, -0.25, -0.25, -0.25, 28.34, 0
32358, 32358573, -0.55, -0.01, -0.01, -0.25, -0.25, -0.25, 28.38, 0
32565, 32565573, -0.68, -0.01, -0.01, -0.3, -0.3, -0.3, 28.34, 0
32781, 32781576, -0.6, -0.01, -0.01, -0.21, -0.21, -0.21, 28.38, 0
33078, 33078572, -0.52, -0.01, -0.01, -0.14, -0.14, -0.14, 28.43, 0
33220, 33220574, -0.53, -0.01, -0.01, -0.28, -0.28, -0.28, 28.29, 0
33509, 33509572, -0.59, -0.01, -0.01, -0.23, -0.23, -0.23, 28.34, 0
33654, 33654572, -0.63, -0.01, -0.01, -0.21, -0.21, -0.21, 28.38, 0
33870, 33870573, -0.57, -0.01, -0.01, -0.24, -0.24, -0.24, 28.34, 0
34159, 34159572, -0.62, -0.01, -0.01, -0.22, -0.22, -0.22, 28.43, 0
34301, 34301574, -0.7, -0.01, -0.01, -0.15, -0.15, -0.15, 28.38, 0
34517, 34517574, -0.55, -0.01, -0.01, -0.3, -0.3, -0.3, 28.34, 0
34808, 34808572, -0.54, -0.01, -0.01, -0.26, -0.26, -0.26, 28.38, 0
34951, 34951574, -0.67, -0.01, -0.01, -0.23, -0.23, -0.23, 28.43, 0
35242, 35242572, -0.73, -0.01, -0.01, -0.2, -0.2, -0.2, 28.34, 0
35380, 35380572, -0.62, -0.01, -0.01, -0.25, -0.25, -0.25, 28.38, 0
35600, 35600574, -0.67, -0.01, -0.01, -0.24, -0.24, -0.24, 28.38, 0
35892, 35892572, -0.65, -0.01, -0.01, -0.21, -0.21, -0.21, 28.29, 0
36030, 36030572, -0.72, -0.01, -0.01, -0.14, -0.14, -0.14, 28.34, 0
36323, 36323572, -0.73, -0.01, -0.01, -0.16, -0.16, -0.16, 28.29, 0
36465, 36465572, -0.63, -0.01, -0.01, -0.25, -0.25, -0.25, 28.48, 0
36760, 36760572, -0.73, -0.01, -0.01, -0.26, -0.26, -0.26, 28.34, 0
36903, 36903573, -0.62, -0.01, -0.01, -0.19, -0.19, -0.19, 28.34, 0
37119, 37119566, -0.72, -0.01, -0.01, -0.27, -0.27, -0.27, 28.43, 0
37408, 37408572, -0.6, -0.01, -0.01, -0.17, -0.17, -0.17, 28.43, 0
37546, 37546573, -0.65, -0.01, -0.01, -0.27, -0.27, -0.27, 28.38, 0
37763, 37763574, -0.6, -0.01, -0.01, -0.17, -0.17, -0.17, 28.34, 0
38052, 38052572, -0.62, -0.01, -0.01, -0.06, -0.06, -0.06, 28.38, 0
38194, 38194574, -0.56, -0.01, -0.01, -0.24, -0.24, -0.24, 28.43, 0
38411, 38411572, -0.65, -0.01, -0.01, -0.28, -0.28, -0.28, 28.38, 0
38704, 38704572, -0.48, -0.0, -0.0, -0.25, -0.25, -0.25, 28.53, 0
38846, 38846566, -0.5, -0.01, -0.01, -0.19, -0.19, -0.19, 28.43, 0
39062, 39062573, -0.61, -0.01, -0.01, -0.23, -0.23, -0.23, 28.43, 0
39351, 39351572, -0.75, -0.01, -0.01, -0.18, -0.18, -0.18, 28.38, 0
39493, 39493573, -0.51, -0.01, -0.01, -0.16, -0.16, -0.16, 28.48, 0
39711, 39711572, -0.7, -0.01, -0.01, -0.22, -0.22, -0.22, 28.38, 0
40001, 40001572, -0.55, -0.01, -0.01, -0.2, -0.2, -0.2, 28.38, 0
40141, 40141572, -0.61, -0.01, -0.01, -0.1, -0.1, -0.1, 28.43, 0
40435, 40435572, -0.63, -0.01, -0.01, -0.2, -0.2, -0.2, 28.48, 0
40576, 40576573, -0.62, -0.01, -0.01, -0.17, -0.17, -0.17, 28.38, 0
40869, 40869572, -0.65, -0.01, -0.01, -0.18, -0.18, -0.18, 28.53, 0
41011, 41011572, -0.59, -0.01, -0.01, -0.14, -0.14, -0.14, 28.48, 0
41300, 41300572, -0.6, -0.01, -0.01, -0.28, -0.28, -0.28, 28.48, 0
41442, 41442566, -0.5, -0.01, -0.01, -0.25, -0.25, -0.25, 28.43, 0
41663, 41663567, -0.61, -0.01, -0.01, -0.2, -0.2, -0.2, 28.48, 0
41877, 41877574, -0.71, -0.01, -0.01, -0.15, -0.15, -0.15, 28.38, 0
42172, 42172572, -0.52, -0.01, -0.01, -0.21, -0.21, -0.21, 28.43, 0
42314, 42314574, -0.58, -0.01, -0.01, -0.26, -0.26, -0.26, 28.43, 0
42602, 42602572, -0.47, -0.0, -0.0, -0.24, -0.24, -0.24, 28.57, 0
42744, 42744576, -0.67, -0.01, -0.01, -0.27, -0.27, -0.27, 28.57, 0
42959, 42959573, -0.58, -0.01, -0.01, -0.25, -0.25, -0.25, 28.43, 0
43249, 43249572, -0.57, -0.01, -0.01, -0.23, -0.23, -0.23, 28.53, 0
43391, 43391567, -0.49, -0.0, -0.0, -0.18, -0.18, -0.18, 28.62, 0
43611, 43611573, -0.48, -0.0, -0.0, -0.22, -0.22, -0.22, 28.53, 0
43903, 43903572, -0.63, -0.01, -0.01, -0.16, -0.16, -0.16, 28.48, 0
44046, 44046573, -0.69, -0.01, -0.01, -0.16, -0.16, -0.16, 28.48, 0
44263, 44263567, -0.58, -0.01, -0.01, -0.14, -0.14, -0.14, 28.57, 0
44551, 44551355, -0.5, -0.01, -0.01, -0.15, -0.15, -0.15, 28.53, 0
44697, 44697574, -0.7, -0.01, -0.01, -0.26, -0.26, -0.26, 28.62, 0
44913, 44913566, -0.65, -0.01, -0.01, -0.12, -0.12, -0.12, 28.62, 0
45202, 45202572, -0.57, -0.01, -0.01, -0.06, -0.06, -0.06, 28.57, 0
45342, 45342573, -0.62, -0.01, -0.01, -0.13, -0.13, -0.13, 28.48, 0
45559, 45559573, -0.5, -0.01, -0.01, -0.22, -0.22, -0.22, 28.53, 0
45769, 45769569, -0.51, -0.01, -0.01, -0.24, -0.24, -0.24, 28.57, 0
45972, 45972572, -0.65, -0.01, -0.01, -0.13, -0.13, -0.13, 28.48, 0
46187, 46187572, -0.54, -0.01, -0.01, -0.22, -0.22, -0.22, 28.48, 0
46325, 46325574, -0.67, -0.01, -0.01, -0.17, -0.17, -0.17, 28.57, 0
46540, 46540577, -0.61, -0.01, -0.01, -0.11, -0.11, -0.11, 28.48, 0
46834, 46834572, -0.68, -0.01, -0.01, -0.25, -0.25, -0.25, 28.57, 0
46976, 46976574, -0.63, -0.01, -0.01, -0.2, -0.2, -0.2, 28.62, 0
47192, 47192573, -0.68, -0.01, -0.01, -0.26, -0.26, -0.26, 28.53, 0
47484, 47484572, -0.7, -0.01, -0.01, -0.15, -0.15, -0.15, 28.62, 0
47627, 47627567, -0.54, -0.01, -0.01, -0.11, -0.11, -0.11, 28.67, 0
47919, 47919572, -0.54, -0.01, -0.01, -0.13, -0.13, -0.13, 28.67, 0
48057, 48057567, -0.54, -0.01, -0.01, -0.25, -0.25, -0.25, 28.53, 0
48354, 48354572, -0.61, -0.01, -0.01, -0.22, -0.22, -0.22, 28.57, 0
48496, 48496574, -0.59, -0.01, -0.01, -0.21, -0.21, -0.21, 28.57, 0
48787, 48787572, -0.5, -0.01, -0.01, -0.27, -0.27, -0.27, 28.62, 0
48929, 48929573, -0.52, -0.01, -0.01, -0.12, -0.12, -0.12, 28.62, 0
49145, 49145574, -0.64, -0.01, -0.01, -0.23, -0.23, -0.23, 28.71, 0
49437, 49437572, -0.57, -0.01, -0.01, -0.12, -0.12, -0.12, 28.57, 0
49583, 49583574, -0.72, -0.01, -0.01, -0.18, -0.18, -0.18, 28.67, 0
49876, 49876572, -0.52, -0.01, -0.01, -0.23, -0.23, -0.23, 28.53, 0
50014, 50014573, -0.65, -0.01, -0.01, -0.21, -0.21, -0.21, 28.67, 0
50307, 50307572, -0.47, -0.0, -0.0, -0.25, -0.25, -0.25, 28.67, 0
50449, 50449572, -0.64, -0.01, -0.01, -0.27, -0.27, -0.27, 28.62, 0
50740, 50740571, -0.63, -0.01, -0.01, -0.27, -0.27, -0.27, 28.62, 0
50881, 50881571, -0.72, -0.01, -0.01, -0.3, -0.3, -0.3, 28.67, 0
51176, 51176571, -0.47, -0.0, -0.0, -0.29, -0.29, -0.29, 28.53, 0
51315, 51315573, -0.52, -0.01, -0.01, -0.29, -0.29, -0.29, 28.53, 0
51606, 51606571, -0.5, -0.01, -0.01, -0.23, -0.23, -0.23, 28.67, 0
51750, 51750565, -0.69, -0.01, -0.01, -0.26, -0.26, -0.26, 28.67, 0
51962, 51962572, -0.71, -0.01, -0.01, -0.26, -0.26, -0.26, 28.57, 0
52255, 52255571, -0.56, -0.01, -0.01, -0.26, -0.26, -0.26, 28.62, 0
52397, 52397573, -0.56, -0.01, -0.01, -0.29, -0.29, -0.29, 28.71, 0
52614, 52614566, -0.6, -0.01, -0.01, -0.19, -0.19, -0.19, 28.62, 0
52910, 52910571, -0.73, -0.01, -0.01, -0.16, -0.16, -0.16, 28.62, 0
53050, 53050572, -0.7, -0.01, -0.01, -0.27, -0.27, -0.27, 28.62, 0
53262, 53262571, -0.65, -0.01, -0.01, -0.27, -0.27, -0.27, 28.67, 0
53552, 53552881, -0.58, -0.01, -0.01, -0.12, -0.12, -0.12, 28.53, 0
53698, 53698571, -0.58, -0.01, -0.01, -0.14, -0.14, -0.14, 28.62, 0
53987, 53987571, -0.58, -0.01, -0.01, -0.26, -0.26, -0.26, 28.67, 0
54129, 54129571, -0.71, -0.01, -0.01, -0.24, -0.24, -0.24, 28.67, 0
54345, 54345572, -0.5, -0.01, -0.01, -0.27, -0.27, -0.27, 28.67, 0
54635, 54635571, -0.53, -0.01, -0.01, -0.27, -0.27, -0.27, 28.53, 0
54777, 54777572, -0.66, -0.01, -0.01, -0.21, -0.21, -0.21, 28.62, 0
54993, 54993572, -0.54, -0.01, -0.01, -0.2, -0.2, -0.2, 28.62, 0
55282, 55282571, -0.63, -0.01, -0.01, -0.23, -0.23, -0.23, 28.62, 0
55424, 55424565, -0.46, -0.0, -0.0, -0.24, -0.24, -0.24, 28.67, 0
55641, 55641572, -0.58, -0.01, -0.01, -0.19, -0.19, -0.19, 28.67, 0
55930, 55930571, -0.66, -0.01, -0.01, -0.26, -0.26, -0.26, 28.67, 0
56071, 56071573, -0.61, -0.01, -0.01, -0.26, -0.26, -0.26, 28.62, 0
56288, 56288565, -0.73, -0.01, -0.01, -0.17, -0.17, -0.17, 28.67, 0
56577, 56577571, -0.57, -0.01, -0.01, -0.17, -0.17, -0.17, 28.67, 0
56721, 56721564, -0.62, -0.01, -0.01, -0.14, -0.14, -0.14, 28.57, 0
56937, 56937572, -0.68, -0.01, -0.01, -0.18, -0.18, -0.18, 28.67, 0
57226, 57226571, -0.66, -0.01, -0.01, -0.19, -0.19, -0.19, 28.67, 0
57368, 57368571, -0.73, -0.01, -0.01, -0.16, -0.16, -0.16, 28.67, 0
57587, 57587571, -0.69, -0.01, -0.01, -0.21, -0.21, -0.21, 28.67, 0
57876, 57876571, -0.74, -0.01, -0.01, -0.24, -0.24, -0.24, 28.62, 0
58018, 58018571, -0.65, -0.01, -0.01, -0.19, -0.19, -0.19, 28.71, 0
58237, 58237572, -0.75, -0.01, -0.01, -0.11, -0.11, -0.11, 28.76, 0
58527, 58527571, -0.68, -0.01, -0.01, -0.15, -0.15, -0.15, 28.71, 0
58672, 58672571, -0.54, -0.01, -0.01, -0.11, -0.11, -0.11, 28.67, 0
58888, 58888571, -0.73, -0.01, -0.01, -0.2, -0.2, -0.2, 28.76, 0
59181, 59181571, -0.54, -0.01, -0.01, -0.23, -0.23, -0.23, 28.71, 0
59323, 59323565, -0.56, -0.01, -0.01, -0.28, -0.28, -0.28, 28.71, 0
59540, 59540437, -0.57, -0.01, -0.01, -0.26, -0.26, -0.26, 28.71, 0
59834, 59834571, -0.59, -0.01, -0.01, -0.22, -0.22, -0.22, 28.76, 0
59979, 59979573, -0.6, -0.01, -0.01, -0.24, -0.24, -0.24, 28.76, 0
60272, 60272571, -0.52, -0.01, -0.01, -0.2, -0.2, -0.2, 28.81, 0
60410, 60410565, -0.56, -0.01, -0.01, -0.21, -0.21, -0.21, 28.71, 0
60705, 60705571, -0.69, -0.01, -0.01, -0.23, -0.23, -0.23, 28.76, 0
60845, 60845571, -0.57, -0.01, -0.01, -0.24, -0.24, -0.24, 28.71, 0
61135, 61135571, -0.69, -0.01, -0.01, -0.22, -0.22, -0.22, 28.71, 0
61276, 61276573, -0.7, -0.01, -0.01, -0.26, -0.26, -0.26, 28.76, 0
61492, 61492571, -0.54, -0.01, -0.01, -0.19, -0.19, -0.19, 28.71, 0
61787, 61787571, -0.71, -0.01, -0.01, -0.29, -0.29, -0.29, 28.76, 0
61929, 61929565, -0.61, -0.01, -0.01, -0.29, -0.29, -0.29, 28.85, 0
62145, 62145565, -0.75, -0.01, -0.01, -0.25, -0.25, -0.25, 28.76, 0
62434, 62434571, -0.65, -0.01, -0.01, -0.21, -0.21, -0.21, 28.81, 0
62580, 62580565, -0.61, -0.01, -0.01, -0.27, -0.27, -0.27, 28.85, 0
62872, 62872571, -0.53, -0.01, -0.01, -0.21, -0.21, -0.21, 28.76, 0
63010, 63010566, -0.57, -0.01, -0.01, -0.17, -0.17, -0.17, 28.81, 0
63303, 63303571, -0.64, -0.01, -0.01, -0.26, -0.26, -0.26, 28.85, 0
63443, 63443573, -0.68, -0.01, -0.01, -0.23, -0.23, -0.23, 28.85, 0
63656, 63656571, -0.76, -0.01, -0.01, -0.27, -0.27, -0.27, 28.85, 0
63948, 63948571, -0.57, -0.01, -0.01, -0.18, -0.18, -0.18, 28.85, 0
64090, 64090571, -0.56, -0.01, -0.01, -0.08, -0.08, -0.08, 28.9, 0
64380, 64380571, -0.52, -0.01, -0.01, -0.23, -0.23, -0.23, 28.81, 0
64522, 64522571, -0.58, -0.01, -0.01, -0.23, -0.23, -0.23, 28.76, 0
64735, 64735571, -0.77, -0.01, -0.01, -0.08, -0.08, -0.08, 28.85, 0
64947, 64947571, -0.63, -0.01, -0.01, -0.25, -0.25, -0.25, 28.85, 0
65240, 65240571, -0.53, -0.01, -0.01, -0.22, -0.22, -0.22, 28.85, 0
65385, 65385571, -0.66, -0.01, -0.01, -0.19, -0.19, -0.19, 28.81, 0
65674, 65674571, -0.75, -0.01, -0.01, -0.2, -0.2, -0.2, 28.81, 0
65817, 65817565, -0.6, -0.01, -0.01, -0.03, -0.03, -0.03, 28.85, 0
66032, 66032571, -0.69, -0.01, -0.01, -0.18, -0.18, -0.18, 28.9, 0
66244, 66244572, -0.72, -0.01, -0.01, -0.08, -0.08, -0.08, 28.81, 0
66536, 66536571, -0.61, -0.01, -0.01, -0.21, -0.21, -0.21, 28.76, 0
66685, 66685573, -0.58, -0.01, -0.01, -0.06, -0.06, -0.06, 28.85, 0
66974, 66974571, -0.73, -0.01, -0.01, -0.17, -0.17, -0.17, 28.81, 0
67119, 67119573, -0.54, -0.01, -0.01, -0.06, -0.06, -0.06, 28.81, 0
67412, 67412571, -0.65, -0.01, -0.01, -0.17, -0.17, -0.17, 28.76, 0
67551, 67551282, -0.62, -0.01, -0.01, -0.07, -0.07, -0.07, 28.85, 0
67846, 67846571, -0.54, -0.01, -0.01, -0.16, -0.16, -0.16, 28.85, 0
67988, 67988571, -0.51, -0.01, -0.01, -0.17, -0.17, -0.17, 28.85, 0
68277, 68277571, -0.56, -0.01, -0.01, -0.13, -0.13, -0.13, 28.9, 0
68419, 68419571, -0.56, -0.01, -0.01, -0.19, -0.19, -0.19, 28.95, 0
68635, 68635571, -0.56, -0.01, -0.01, -0.14, -0.14, -0.14, 28.9, 0
68927, 68927571, -0.58, -0.01, -0.01, -0.1, -0.1, -0.1, 28.81, 0
69073, 69073573, -0.65, -0.01, -0.01, -0.06, -0.06, -0.06, 28.76, 0
69365, 69365571, -0.51, -0.01, -0.01, 0.0, 0.0, 0.0, 28.9, 0
69503, 69503571, -0.59, -0.01, -0.01, -0.16, -0.16, -0.16, 28.9, 0
69799, 69799571, -0.73, -0.01, -0.01, -0.06, -0.06, -0.06, 28.85, 0
69941, 69941572, -0.76, -0.01, -0.01, -0.15, -0.15, -0.15, 28.85, 0
70230, 70230571, -0.76, -0.01, -0.01, -0.09, -0.09, -0.09, 28.81, 0
70372, 70372571, -0.56, -0.01, -0.01, -0.09, -0.09, -0.09, 28.85, 0
70592, 70592571, -0.62, -0.01, -0.01, -0.1, -0.1, -0.1, 28.81, 0
70794, 70794562, -0.53, -0.01, -0.01, -0.08, -0.08, -0.08, 28.85, 0
70998, 70998571, -0.68, -0.01, -0.01, -0.04, -0.04, -0.04, 28.76, 0
71212, 71212571, -0.61, -0.01, -0.01, -0.08, -0.08, -0.08, 28.85, 0
71352, 71352573, -0.64, -0.01, -0.01, -0.09, -0.09, -0.09, 28.85, 0
71568, 71568565, -0.69, -0.01, -0.01, -0.17, -0.17, -0.17, 28.76, 0
71857, 71857571, -0.58, -0.01, -0.01, -0.14, -0.14, -0.14, 28.85, 0
71999, 71999571, -0.76, -0.01, -0.01, -0.12, -0.12, -0.12, 28.9, 0
72221, 72221566, -0.63, -0.01, -0.01, -0.27, -0.27, -0.27, 28.9, 0
72513, 72513571, -0.59, -0.01, -0.01, -0.26, -0.26, -0.26, 28.9, 0
72657, 72657571, -0.62, -0.01, -0.01, -0.18, -0.18, -0.18, 28.76, 0
72874, 72874573, -0.52, -0.01, -0.01, -0.21, -0.21, -0.21, 28.76, 0
73165, 73165571, -0.54, -0.01, -0.01, -0.11, -0.11, -0.11, 28.76, 0
73307, 73307573, -0.68, -0.01, -0.01, -0.08, -0.08, -0.08, 28.81, 0
73523, 73523572, -0.53, -0.01, -0.01, -0.19, -0.19, -0.19, 28.76, 0
73815, 73815571, -0.5, -0.01, -0.01, -0.16, -0.16, -0.16, 28.85, 0
73955, 73955565, -0.63, -0.01, -0.01, -0.11, -0.11, -0.11, 28.9, 0
74170, 74170571, -0.63, -0.01, -0.01, -0.09, -0.09, -0.09, 28.85, 0
74463, 74463571, -0.5, -0.01, -0.01, -0.07, -0.07, -0.07, 28.85, 0
74608, 74608572, -0.67, -0.01, -0.01, -0.09, -0.09, -0.09, 28.81, 0
74900, 74900571, -0.61, -0.01, -0.01, -0.15, -0.15, -0.15, 28.9, 0
75038, 75038572, -0.78, -0.01, -0.01, -0.26, -0.26, -0.26, 28.85, 0
75331, 75331571, -0.57, -0.01, -0.01, -0.12, -0.12, -0.12, 28.85, 0
75475, 75475573, -0.62, -0.01, -0.01, -0.11, -0.11, -0.11, 28.9, 0
75765, 75765571, -0.64, -0.01, -0.01, -0.21, -0.21, -0.21, 28.85, 0
75907, 75907571, -0.74, -0.01, -0.01, -0.14, -0.14, -0.14, 28.85, 0
76127, 76127565, -0.7, -0.01, -0.01, -0.2, -0.2, -0.2, 28.85, 0
76418, 76418571, -0.75, -0.01, -0.01, -0.21, -0.21, -0.21, 28.9, 0
76559, 76559573, -0.57, -0.01, -0.01, -0.29, -0.29, -0.29, 28.9, 0
76852, 76852571, -0.5, -0.01, -0.01, -0.22, -0.22, -0.22, 28.85, 0
76990, 76990566, -0.57, -0.01, -0.01, -0.18, -0.18, -0.18, 28.85, 0
77283, 77283571, -0.59, -0.01, -0.01, -0.22, -0.22, -0.22, 28.81, 0
77425, 77425565, -0.64, -0.01, -0.01, -0.23, -0.23, -0.23, 28.85, 0
77638, 77638575, -0.58, -0.01, -0.01, -0.1, -0.1, -0.1, 28.95, 0
77935, 77935571, -0.74, -0.01, -0.01, -0.24, -0.24, -0.24, 28.95, 0
78077, 78077571, -0.67, -0.01, -0.01, -0.1, -0.1, -0.1, 28.85, 0
78366, 78366571, -0.68, -0.01, -0.01, -0.16, -0.16, -0.16, 28.9, 0
78508, 78508565, -0.62, -0.01, -0.01, -0.19, -0.19, -0.19, 28.95, 0
78725, 78725565, -0.73, -0.01, -0.01, -0.13, -0.13, -0.13, 28.9, 0
79014, 79014571, -0.71, -0.01, -0.01, -0.19, -0.19, -0.19, 28.95, 0
79154, 79154573, -0.69, -0.01, -0.01, -0.18, -0.18, -0.18, 29.0, 0
79369, 79369575, -0.54, -0.01, -0.01, -0.23, -0.23, -0.23, 29.0, 0
79662, 79662571, -0.68, -0.01, -0.01, -0.18, -0.18, -0.18, 29.0, 0
79804, 79804573, -0.68, -0.01, -0.01, -0.2, -0.2, -0.2, 28.9, 0
80020, 80020571, -0.55, -0.01, -0.01, -0.12, -0.12, -0.12, 29.0, 0
80309, 80309571, -0.5, -0.01, -0.01, -0.21, -0.21, -0.21, 29.04, 0
80451, 80451573, -0.55, -0.01, -0.01, -0.15, -0.15, -0.15, 29.04, 0
80669, 80669573, -0.5, -0.01, -0.01, -0.3, -0.3, -0.3, 28.95, 0
80958, 80958571, -0.55, -0.01, -0.01, -0.16, -0.16, -0.16, 29.0, 0
81101, 81101573, -0.6, -0.01, -0.01, -0.13, -0.13, -0.13, 28.9, 0
81318, 81318571, -0.49, -0.0, -0.0, -0.17, -0.17, -0.17, 28.9, 0
81608, 81608571, -0.58, -0.01, -0.01, -0.14, -0.14, -0.14, 28.95, 0
81750, 81750572, -0.49, -0.0, -0.0, -0.28, -0.28, -0.28, 29.04, 0
81965, 81965571, -0.7, -0.01, -0.01, -0.21, -0.21, -0.21, 29.0, 0
82254, 82254571, -0.74, -0.01, -0.01, -0.09, -0.09, -0.09, 28.9, 0
82396, 82396571, -0.54, -0.01, -0.01, -0.22, -0.22, -0.22, 29.0, 0
82615, 82615571, -0.7, -0.01, -0.01, -0.15, -0.15, -0.15, 29.09, 0
82906, 82906571, -0.57, -0.01, -0.01, -0.05, -0.05, -0.05, 29.0, 0
83048, 83048572, -0.56, -0.01, -0.01, -0.18, -0.18, -0.18, 28.95, 0
83267, 83267573, -0.51, -0.01, -0.01, -0.27, -0.27, -0.27, 29.04, 0
83557, 83557571, -0.53, -0.01, -0.01, -0.17, -0.17, -0.17, 29.04, 0
83701, 83701571, -0.63, -0.01, -0.01, -0.14, -0.14, -0.14, 29.0, 0
83917, 83917571, -0.5, -0.01, -0.01, -0.22, -0.22, -0.22, 29.04, 0
84206, 84206571, -0.56, -0.01, -0.01, -0.14, -0.14, -0.14, 29.0, 0
84347, 84347565, -0.54, -0.01, -0.01, -0.24, -0.24, -0.24, 29.04, 0
84559, 84559575, -0.51, -0.01, -0.01, -0.13, -0.13, -0.13, 29.04, 0
84773, 84773572, -0.73, -0.01, -0.01, -0.17, -0.17, -0.17, 29.09, 0
85069, 85069571, -0.49, -0.0, -0.0, -0.02, -0.02, -0.02, 29.09, 0
85211, 85211572, -0.64, -0.01, -0.01, -0.19, -0.19, -0.19, 29.04, 0
85504, 85504571, -0.7, -0.01, -0.01, -0.12, -0.12, -0.12, 29.0, 0
85645, 85645565, -0.66, -0.01, -0.01, -0.18, -0.18, -0.18, 29.0, 0
85863, 85863573, -0.68, -0.01, -0.01, -0.12, -0.12, -0.12, 29.0, 0
86152, 86152571, -0.65, -0.01, -0.01, -0.22, -0.22, -0.22, 29.04, 0
86295, 86295573, -0.71, -0.01, -0.01, -0.17, -0.17, -0.17, 28.95, 0
86512, 86512573, -0.66, -0.01, -0.01, -0.03, -0.03, -0.03, 28.95, 0
86807, 86807571, -0.61, -0.01, -0.01, -0.05, -0.05, -0.05, 29.04, 0
86947, 86947572, -0.45, -0.0, -0.0, -0.16, -0.16, -0.16, 29.04, 0
87162, 87162572, -0.74, -0.01, -0.01, -0.1, -0.1, -0.1, 29.0, 0
87451, 87451571, -0.67, -0.01, -0.01, -0.12, -0.12, -0.12, 29.14, 0
87598, 87598566, -0.54, -0.01, -0.01, -0.2, -0.2, -0.2, 29.0, 0
87890, 87890571, -0.7, -0.01, -0.01, -0.18, -0.18, -0.18, 29.0, 0
88028, 88028571, -0.51, -0.01, -0.01, -0.24, -0.24, -0.24, 28.95, 0
88322, 88322571, -0.74, -0.01, -0.01, -0.2, -0.2, -0.2, 29.04, 0
88464, 88464575, -0.59, -0.01, -0.01, -0.25, -0.25, -0.25, 29.0, 0
88670, 88670568, -0.64, -0.01, -0.01, -0.16, -0.16, -0.16, 29.04, 0
88874, 88874571, -0.62, -0.01, -0.01, -0.11, -0.11, -0.11, 29.09, 0
89088, 89088571, -0.5, -0.01, -0.01, -0.25, -0.25, -0.25, 29.09, 0
89230, 89230571, -0.68, -0.01, -0.01, -0.23, -0.23, -0.23, 29.0, 0
89446, 89446573, -0.47, -0.0, -0.0, -0.12, -0.12, -0.12, 29.09, 0
89737, 89737571, -0.57, -0.01, -0.01, -0.2, -0.2, -0.2, 29.04, 0
89885, 89885566, -0.53, -0.01, -0.01, -0.24, -0.24, -0.24, 29.0, 0
90178, 90178571, -0.61, -0.01, -0.01, -0.16, -0.16, -0.16, 29.0, 0
90316, 90316565, -0.5, -0.01, -0.01, -0.3, -0.3, -0.3, 29.14, 0
90608, 90608571, -0.6, -0.01, -0.01, -0.12, -0.12, -0.12, 29.04, 0
90753, 90753571, -0.67, -0.01, -0.01, -0.12, -0.12, -0.12, 29.0, 0
91042, 91042571, -0.69, -0.01, -0.01, -0.22, -0.22, -0.22, 29.04, 0
91184, 91184571, -0.58, -0.01, -0.01, -0.24, -0.24, -0.24, 29.04, 0
91400, 91400571, -0.68, -0.01, -0.01, -0.26, -0.26, -0.26, 28.95, 0
91612, 91612571, -0.65, -0.01, -0.01, -0.24, -0.24, -0.24, 29.04, 0
91905, 91905571, -0.54, -0.01, -0.01, -0.23, -0.23, -0.23, 29.04, 0
92045, 92045572, -0.53, -0.01, -0.01, -0.13, -0.13, -0.13, 29.0, 0
92337, 92337571, -0.64, -0.01, -0.01, -0.19, -0.19, -0.19, 29.09, 0
92477, 92477573, -0.62, -0.01, -0.01, -0.09, -0.09, -0.09, 29.04, 0
92772, 92772571, -0.71, -0.01, -0.01, -0.15, -0.15, -0.15, 29.18, 0
92910, 92910571, -0.62, -0.01, -0.01, -0.07, -0.07, -0.07, 29.09, 0
93203, 93203571, -0.57, -0.01, -0.01, -0.17, -0.17, -0.17, 29.14, 0
93345, 93345564, -0.5, -0.01, -0.01, -0.15, -0.15, -0.15, 29.04, 0
93637, 93637571, -0.63, -0.01, -0.01, -0.28, -0.28, -0.28, 29.18, 0
93779, 93779571, -0.76, -0.01, -0.01, -0.16, -0.16, -0.16, 29.04, 0
93998, 93998565, -0.7, -0.01, -0.01, -0.16, -0.16, -0.16, 28.9, 0
94287, 94287571, -0.68, -0.01, -0.01, -0.12, -0.12, -0.12, 29.04, 0
94429, 94429571, -0.72, -0.01, -0.01, -0.17, -0.17, -0.17, 29.09, 0
94645, 94645571, -0.54, -0.01, -0.01, -0.22, -0.22, -0.22, 29.0, 0
94935, 94935571, -0.56, -0.01, -0.01, -0.06, -0.06, -0.06, 29.0, 0
95076, 95076573, -0.62, -0.01, -0.01, -0.17, -0.17, -0.17, 29.0, 0
95292, 95292573, -0.56, -0.01, -0.01, -0.28, -0.28, -0.28, 29.09, 0
95579, 95579571, -0.71, -0.01, -0.01, -0.19, -0.19, -0.19, 29.09, 0
95727, 95727571, -0.67, -0.01, -0.01, -0.18, -0.18, -0.18, 29.14, 0
96019, 96019571, -0.71, -0.01, -0.01, -0.1, -0.1, -0.1, 29.04, 0
96157, 96157571, -0.66, -0.01, -0.01, -0.05, -0.05, -0.05, 29.14, 0
96450, 96450571, -0.66, -0.01, -0.01, -0.04, -0.04, -0.04, 29.14, 0
96595, 96595571, -0.66, -0.01, -0.01, -0.01, -0.01, -0.01, 29.18, 0
96884, 96884571, -0.6, -0.01, -0.01, -0.23, -0.23, -0.23, 29.14, 0
97026, 97026573, -0.63, -0.01, -0.01, -0.17, -0.17, -0.17, 29.14, 0
97240, 97240571, -0.65, -0.01, -0.01, -0.17, -0.17, -0.17, 29.04, 0
97452, 97452565, -0.56, -0.01, -0.01, -0.21, -0.21, -0.21, 29.09, 0
97749, 97749571, -0.69, -0.01, -0.01, -0.08, -0.08, -0.08, 29.14, 0
97891, 97891572, -0.54, -0.01, -0.01, -0.12, -0.12, -0.12, 29.09, 0
98181, 98181571, -0.5, -0.01, -0.01, -0.18, -0.18, -0.18, 29.14, 0
98323, 98323571, -0.5, -0.01, -0.01, -0.2, -0.2, -0.2, 29.23, 0
98539, 98539573, -0.63, -0.01, -0.01, -0.17, -0.17, -0.17, 29.18, 0
98834, 98834571, -0.62, -0.01, -0.01, -0.27, -0.27, -0.27, 29.23, 0
98978, 98978571, -0.69, -0.01, -0.01, -0.09, -0.09, -0.09, 29.18, 0
99194, 99194572, -0.55, -0.01, -0.01, -0.21, -0.21, -0.21, 29.23, 0
99486, 99486571, -0.7, -0.01, -0.01, -0.14, -0.14, -0.14, 29.18, 0
99630, 99630573, -0.63, -0.01, -0.01, -0.13, -0.13, -0.13, 29.09, 0
99920, 99920571, -0.6, -0.01, -0.01, -0.05, -0.05, -0.05, 29.09, 0
100058, 100058571, -0.67, -0.01, -0.01, -0.13, -0.13, -0.13, 29.09, 0
100350, 100350571, -0.62, -0.01, -0.01, 0.0, 0.0, 0.0, 29.23, 0
100492, 100492571, -0.44, -0.0, -0.0, -0.07, -0.07, -0.07, 29.14, 0
100786, 100786570, -0.74, -0.01, -0.01, -0.13, -0.13, -0.13, 29.23, 0
100928, 100928571, -0.64, -0.01, -0.01, -0.17, -0.17, -0.17, 29.14, 0
101148, 101148571, -0.64, -0.01, -0.01, -0.19, -0.19, -0.19, 29.14, 0
101441, 101441570, -0.54, -0.01, -0.01, -0.13, -0.13, -0.13, 29.14, 0
101583, 101583570, -0.61, -0.01, -0.01, -0.15, -0.15, -0.15, 29.14, 0
101875, 101875570, -0.68, -0.01, -0.01, -0.22, -0.22, -0.22, 29.18, 0
102015, 102015570, -0.7, -0.01, -0.01, -0.24, -0.24, -0.24, 29.23, 0
102308, 102308570, -0.63, -0.01, -0.01, -0.18, -0.18, -0.18, 29.18, 0
102448, 102448571, -0.66, -0.01, -0.01, -0.07, -0.07, -0.07, 29.18, 0
102742, 102742570, -0.54, -0.01, -0.01, -0.2, -0.2, -0.2, 29.14, 0
102883, 102883570, -0.53, -0.01, -0.01, -0.16, -0.16, -0.16, 29.14, 0
103176, 103176570, -0.69, -0.01, -0.01, -0.15, -0.15, -0.15, 29.09, 0
103318, 103318571, -0.63, -0.01, -0.01, -0.17, -0.17, -0.17, 29.14, 0
103607, 103607570, -0.7, -0.01, -0.01, -0.2, -0.2, -0.2, 29.23, 0
103751, 103751570, -0.45, -0.0, -0.0, -0.23, -0.23, -0.23, 29.18, 0
103967, 103967570, -0.7, -0.01, -0.01, -0.18, -0.18, -0.18, 29.23, 0
104260, 104260570, -0.49, -0.0, -0.0, -0.11, -0.11, -0.11, 29.18, 0
104399, 104399571, -0.55, -0.01, -0.01, -0.08, -0.08, -0.08, 29.18, 0
104616, 104616570, -0.69, -0.01, -0.01, -0.1, -0.1, -0.1, 29.14, 0
104909, 104909570, -0.59, -0.01, -0.01, -0.16, -0.16, -0.16, 29.23, 0
105047, 105047571, -0.64, -0.01, -0.01, -0.14, -0.14, -0.14, 29.18, 0
105340, 105340570, -0.49, -0.0, -0.0, -0.09, -0.09, -0.09, 29.14, 0
105482, 105482564, -0.64, -0.01, -0.01, -0.21, -0.21, -0.21, 29.14, 0
105778, 105778570, -0.51, -0.01, -0.01, -0.24, -0.24, -0.24, 29.18, 0
105920, 105920571, -0.57, -0.01, -0.01, -0.24, -0.24, -0.24, 29.23, 0
106137, 106137564, -0.52, -0.01, -0.01, -0.18, -0.18, -0.18, 29.28, 0
106429, 106429570, -0.52, -0.01, -0.01, -0.2, -0.2, -0.2, 29.23, 0
106572, 106572570, -0.73, -0.01, -0.01, -0.19, -0.19, -0.19, 29.18, 0
106789, 106789564, -0.55, -0.01, -0.01, -0.26, -0.26, -0.26, 29.23, 0
107082, 107082570, -0.72, -0.01, -0.01, -0.24, -0.24, -0.24, 29.28, 0
107220, 107220570, -0.56, -0.01, -0.01, -0.25, -0.25, -0.25, 29.18, 0
107434, 107434571, -0.69, -0.01, -0.01, -0.11, -0.11, -0.11, 29.18, 0
107651, 107651571, -0.65, -0.01, -0.01, -0.14, -0.14, -0.14, 29.33, 0
107867, 107867564, -0.55, -0.01, -0.01, -0.14, -0.14, -0.14, 29.23, 0
108160, 108160570, -0.7, -0.01, -0.01, -0.22, -0.22, -0.22, 29.28, 0
108305, 108305570, -0.56, -0.01, -0.01, -0.2, -0.2, -0.2, 29.28, 0
108592, 108592570, -0.73, -0.01, -0.01, -0.15, -0.15, -0.15, 29.33, 0
108736, 108736571, -0.45, -0.0, -0.0, -0.13, -0.13, -0.13, 29.28, 0
108952, 108952570, -0.71, -0.01, -0.01, -0.22, -0.22, -0.22, 29.33, 0
109242, 109242570, -0.65, -0.01, -0.01, -0.12, -0.12, -0.12, 29.28, 0
109384, 109384570, -0.61, -0.01, -0.01, -0.28, -0.28, -0.28, 29.37, 0
109604, 109604564, -0.53, -0.01, -0.01, -0.21, -0.21, -0.21, 29.28, 0
109893, 109893570, -0.57, -0.01, -0.01, -0.17, -0.17, -0.17, 29.23, 0
110036, 110036570, -0.34, -0.0, -0.0, -0.16, -0.16, -0.16, 29.33, 0
110245, 110245577, 0.04, 0.0, 0.0, -0.15, -0.15, -0.15, 29.33, 0
110459, 110459564, -0.68, -0.01, -0.01, -0.28, -0.28, -0.28, 29.33, 0
110753, 110753566, -0.42, -0.0, -0.0, -0.13, -0.13, -0.13, 29.28, 0
0, 0, 0.0, 0.0, 0.0, 0.0, 0.0, 0.0, 0.0, 0
0, 0, 0.0, 0.0, 0.0, 0.0, 0.0, 0.0, 0.0, 0
0, 0, 0.0, 0.0, 0.0, 0.0, 0.0, 0.0, 0.0, 0
0, 0, 0.0, 0.0, 0.0, 0.0, 0.0, 0.0, 0.0, 0
0, 0, 0.0, 0.0, 0.0, 0.0, 0.0, 0.0, 0.0, 0
0, 0, 0.0, 0.0, 0.0, 0.0, 0.0, 0.0, 0.0, 0
0, 0, 0.0, 0.0, 0.0, 0.0, 0.0, 0.0, 0.0, 0
0, 0, 0.0, 0.0, 0.0, 0.0, 0.0, 0.0, 0.0, 0
0, 0, 0.0, 0.0, 0.0, 0.0, 0.0, 0.0, 0.0, 0
0, 0, 0.0, 0.0, 0.0, 0.0, 0.0, 0.0, 0.0, 0
0, 0, 0.0, 0.0, 0.0, 0.0, 0.0, 0.0, 0.0, 0
0, 0, 0.0, 0.0, 0.0, 0.0, 0.0, 0.0, 0.0, 0
0, 0, 0.0, 0.0, 0.0, 0.0, 0.0, 0.0, 0.0, 0
0, 0, 0.0, 0.0, 0.0, 0.0, 0.0, 0.0, 0.0, 0
0, 0, 0.0, 0.0, 0.0, 0.0, 0.0, 0.0, 0.0, 0
0, 0, 0.0, 0.0, 0.0, 0.0, 0.0, 0.0, 0.0, 0
0, 0, 0.0, 0.0, 0.0, 0.0, 0.0, 0.0, 0.0, 0
0, 0, 0.0, 0.0, 0.0, 0.0, 0.0, 0.0, 0.0, 0
0, 0, 0.0, 0.0, 0.0, 0.0, 0.0, 0.0, 0.0, 0
0, 0, 0.0, 0.0, 0.0, 0.0, 0.0, 0.0, 0.0, 0
0, 0, 0.0, 0.0, 0.0, 0.0, 0.0, 0.0, 0.0, 0
0, 0, 0.0, 0.0, 0.0, 0.0, 0.0, 0.0, 0.0, 0
0, 0, 0.0, 0.0, 0.0, 0.0, 0.0, 0.0, 0.0, 0
0, 0, 0.0, 0.0, 0.0, 0.0, 0.0, 0.0, 0.0, 0
0, 0, 0.0, 0.0, 0.0, 0.0, 0.0, 0.0, 0.0, 0
0, 0, 0.0, 0.0, 0.0, 0.0, 0.0, 0.0, 0.0, 0
0, 0, 0.0, 0.0, 0.0, 0.0, 0.0, 0.0, 0.0, 0
0, 0, 0.0, 0.0, 0.0, 0.0, 0.0, 0.0, 0.0, 0
0, 0, 0.0, 0.0, 0.0, 0.0, 0.0, 0.0, 0.0, 0
0, 0, 0.0, 0.0, 0.0, 0.0, 0.0, 0.0, 0.0, 0
0, 0, 0.0, 0.0, 0.0, 0.0, 0.0, 0.0, 0.0, 0
0, 0, 0.0, 0.0, 0.0, 0.0, 0.0, 0.0, 0.0, 0
0, 0, 0.0, 0.0, 0.0, 0.0, 0.0, 0.0, 0.0, 0
0, 0, 0.0, 0.0, 0.0, 0.0, 0.0, 0.0, 0.0, 0
0, 0, 0.0, 0.0, 0.0, 0.0, 0.0, 0.0, 0.0, 0
0, 0, 0.0, 0.0, 0.0, 0.0, 0.0, 0.0, 0.0, 0
0, 0, 0.0, 0.0, 0.0, 0.0, 0.0, 0.0, 0.0, 0
0, 0, 0.0, 0.0, 0.0, 0.0, 0.0, 0.0, 0.0, 0
0, 0, 0.0, 0.0, 0.0, 0.0, 0.0, 0.0, 0.0, 0
0, 0, 0.0, 0.0, 0.0, 0.0, 0.0, 0.0, 0.0, 0
0, 0, 0.0, 0.0, 0.0, 0.0, 0.0, 0.0, 0.0, 0
0, 0, 0.0, 0.0, 0.0, 0.0, 0.0, 0.0, 0.0, 0
0, 0, 0.0, 0.0, 0.0, 0.0, 0.0, 0.0, 0.0, 0
0, 0, 0.0, 0.0, 0.0, 0.0, 0.0, 0.0, 0.0, 0
0, 0, 0.0, 0.0, 0.0, 0.0, 0.0, 0.0, 0.0, 0
0, 0, 0.0, 0.0, 0.0, 0.0, 0.0, 0.0, 0.0, 0
0, 0, 0.0, 0.0, 0.0, 0.0, 0.0, 0.0, 0.0, 0
0, 0, 0.0, 0.0, 0.0, 0.0, 0.0, 0.0, 0.0, 0
0, 0, 0.0, 0.0, 0.0, 0.0, 0.0, 0.0, 0.0, 0
0, 0, 0.0, 0.0, 0.0, 0.0, 0.0, 0.0, 0.0, 0
0, 0, 0.0, 0.0, 0.0, 0.0, 0.0, 0.0, 0.0, 0
0, 0, 0.0, 0.0, 0.0, 0.0, 0.0, 0.0, 0.0, 0
0, 0, 0.0, 0.0, 0.0, 0.0, 0.0, 0.0, 0.0, 0
0, 0, 0.0, 0.0, 0.0, 0.0, 0.0, 0.0, 0.0, 0
0, 0, 0.0, 0.0, 0.0, 0.0, 0.0, 0.0, 0.0, 0
0, 0, 0.0, 0.0, 0.0, 0.0, 0.0, 0.0, 0.0, 0
0, 0, 0.0, 0.0, 0.0, 0.0, 0.0, 0.0, 0.0, 0
0, 0, 0.0, 0.0, 0.0, 0.0, 0.0, 0.0, 0.0, 0
0, 0, 0.0, 0.0, 0.0, 0.0, 0.0, 0.0, 0.0, 0
0, 0, 0.0, 0.0, 0.0, 0.0, 0.0, 0.0, 0.0, 0
0, 0, 0.0, 0.0, 0.0, 0.0, 0.0, 0.0, 0.0, 0
0, 0, 0.0, 0.0, 0.0, 0.0, 0.0, 0.0, 0.0, 0
0, 0, 0.0, 0.0, 0.0, 0.0, 0.0, 0.0, 0.0, 0
0, 0, 0.0, 0.0, 0.0, 0.0, 0.0, 0.0, 0.0, 0
0, 0, 0.0, 0.0, 0.0, 0.0, 0.0, 0.0, 0.0, 0
0, 0, 0.0, 0.0, 0.0, 0.0, 0.0, 0.0, 0.0, 0
0, 0, 0.0, 0.0, 0.0, 0.0, 0.0, 0.0, 0.0, 0
0, 0, 0.0, 0.0, 0.0, 0.0, 0.0, 0.0, 0.0, 0
0, 0, 0.0, 0.0, 0.0, 0.0, 0.0, 0.0, 0.0, 0
0, 0, 0.0, 0.0, 0.0, 0.0, 0.0, 0.0, 0.0, 0
0, 0, 0.0, 0.0, 0.0, 0.0, 0.0, 0.0, 0.0, 0
0, 0, 0.0, 0.0, 0.0, 0.0, 0.0, 0.0, 0.0, 0
0, 0, 0.0, 0.0, 0.0, 0.0, 0.0, 0.0, 0.0, 0
0, 0, 0.0, 0.0, 0.0, 0.0, 0.0, 0.0, 0.0, 0
0, 0, 0.0, 0.0, 0.0, 0.0, 0.0, 0.0, 0.0, 0
0, 0, 0.0, 0.0, 0.0, 0.0, 0.0, 0.0, 0.0, 0
0, 0, 0.0, 0.0, 0.0, 0.0, 0.0, 0.0, 0.0, 0
0, 0, 0.0, 0.0, 0.0, 0.0, 0.0, 0.0, 0.0, 0
0, 0, 0.0, 0.0, 0.0, 0.0, 0.0, 0.0, 0.0, 0
0, 0, 0.0, 0.0, 0.0, 0.0, 0.0, 0.0, 0.0, 0
0, 0, 0.0, 0.0, 0.0, 0.0, 0.0, 0.0, 0.0, 0
0, 0, 0.0, 0.0, 0.0, 0.0, 0.0, 0.0, 0.0, 0
0, 0, 0.0, 0.0, 0.0, 0.0, 0.0, 0.0, 0.0, 0
0, 0, 0.0, 0.0, 0.0, 0.0, 0.0, 0.0, 0.0, 0
0, 0, 0.0, 0.0, 0.0, 0.0, 0.0, 0.0, 0.0, 0
0, 0, 0.0, 0.0, 0.0, 0.0, 0.0, 0.0, 0.0, 0
0, 0, 0.0, 0.0, 0.0, 0.0, 0.0, 0.0, 0.0, 0
0, 0, 0.0, 0.0, 0.0, 0.0, 0.0, 0.0, 0.0, 0
0, 0, 0.0, 0.0, 0.0, 0.0, 0.0, 0.0, 0.0, 0
0, 0, 0.0, 0.0, 0.0, 0.0, 0.0, 0.0, 0.0, 0
0, 0, 0.0, 0.0, 0.0, 0.0, 0.0, 0.0, 0.0, 0
0, 0, 0.0, 0.0, 0.0, 0.0, 0.0, 0.0, 0.0, 0
0, 0, 0.0, 0.0, 0.0, 0.0, 0.0, 0.0, 0.0, 0
0, 0, 0.0, 0.0, 0.0, 0.0, 0.0, 0.0, 0.0, 0
0, 0, 0.0, 0.0, 0.0, 0.0, 0.0, 0.0, 0.0, 0
0, 0, 0.0, 0.0, 0.0, 0.0, 0.0, 0.0, 0.0, 0
0, 0, 0.0, 0.0, 0.0, 0.0, 0.0, 0.0, 0.0, 0
0, 0, 0.0, 0.0, 0.0, 0.0, 0.0, 0.0, 0.0, 0
0, 0, 0.0, 0.0, 0.0, 0.0, 0.0, 0.0, 0.0, 0
0, 0, 0.0, 0.0, 0.0, 0.0, 0.0, 0.0, 0.0, 0
0, 0, 0.0, 0.0, 0.0, 0.0, 0.0, 0.0, 0.0, 0
0, 0, 0.0, 0.0, 0.0, 0.0, 0.0, 0.0, 0.0, 0
0, 0, 0.0, 0.0, 0.0, 0.0, 0.0, 0.0, 0.0, 0
0, 0, 0.0, 0.0, 0.0, 0.0, 0.0, 0.0, 0.0, 0
0, 0, 0.0, 0.0, 0.0, 0.0, 0.0, 0.0, 0.0, 0
0, 0, 0.0, 0.0, 0.0, 0.0, 0.0, 0.0, 0.0, 0
0, 0, 0.0, 0.0, 0.0, 0.0, 0.0, 0.0, 0.0, 0
0, 0, 0.0, 0.0, 0.0, 0.0, 0.0, 0.0, 0.0, 0
0, 0, 0.0, 0.0, 0.0, 0.0, 0.0, 0.0, 0.0, 0
0, 0, 0.0, 0.0, 0.0, 0.0, 0.0, 0.0, 0.0, 0
0, 0, 0.0, 0.0, 0.0, 0.0, 0.0, 0.0, 0.0, 0
0, 0, 0.0, 0.0, 0.0, 0.0, 0.0, 0.0, 0.0, 0
0, 0, 0.0, 0.0, 0.0, 0.0, 0.0, 0.0, 0.0, 0
0, 0, 0.0, 0.0, 0.0, 0.0, 0.0, 0.0, 0.0, 0
0, 0, 0.0, 0.0, 0.0, 0.0, 0.0, 0.0, 0.0, 0
0, 0, 0.0, 0.0, 0.0, 0.0, 0.0, 0.0, 0.0, 0
0, 0, 0.0, 0.0, 0.0, 0.0, 0.0, 0.0, 0.0, 0
0, 0, 0.0, 0.0, 0.0, 0.0, 0.0, 0.0, 0.0, 0
0, 0, 0.0, 0.0, 0.0, 0.0, 0.0, 0.0, 0.0, 0
0, 0, 0.0, 0.0, 0.0, 0.0, 0.0, 0.0, 0.0, 0
0, 0, 0.0, 0.0, 0.0, 0.0, 0.0, 0.0, 0.0, 0
0, 0, 0.0, 0.0, 0.0, 0.0, 0.0, 0.0, 0.0, 0
0, 0, 0.0, 0.0, 0.0, 0.0, 0.0, 0.0, 0.0, 0
0, 0, 0.0, 0.0, 0.0, 0.0, 0.0, 0.0, 0.0, 0
0, 0, 0.0, 0.0, 0.0, 0.0, 0.0, 0.0, 0.0, 0
0, 0, 0.0, 0.0, 0.0, 0.0, 0.0, 0.0, 0.0, 0
0, 0, 0.0, 0.0, 0.0, 0.0, 0.0, 0.0, 0.0, 0
0, 0, 0.0, 0.0, 0.0, 0.0, 0.0, 0.0, 0.0, 0
0, 0, 0.0, 0.0, 0.0, 0.0, 0.0, 0.0, 0.0, 0
0, 0, 0.0, 0.0, 0.0, 0.0, 0.0, 0.0, 0.0, 0
0, 0, 0.0, 0.0, 0.0, 0.0, 0.0, 0.0, 0.0, 0
0, 0, 0.0, 0.0, 0.0, 0.0, 0.0, 0.0, 0.0, 0
0, 0, 0.0, 0.0, 0.0, 0.0, 0.0, 0.0, 0.0, 0
0, 0, 0.0, 0.0, 0.0, 0.0, 0.0, 0.0, 0.0, 0
0, 0, 0.0, 0.0, 0.0, 0.0, 0.0, 0.0, 0.0, 0
0, 0, 0.0, 0.0, 0.0, 0.0, 0.0, 0.0, 0.0, 0
0, 0, 0.0, 0.0, 0.0, 0.0, 0.0, 0.0, 0.0, 0
0, 0, 0.0, 0.0, 0.0, 0.0, 0.0, 0.0, 0.0, 0
0, 0, 0.0, 0.0, 0.0, 0.0, 0.0, 0.0, 0.0, 0
0, 0, 0.0, 0.0, 0.0, 0.0, 0.0, 0.0, 0.0, 0
0, 0, 0.0, 0.0, 0.0, 0.0, 0.0, 0.0, 0.0, 0
0, 0, 0.0, 0.0, 0.0, 0.0, 0.0, 0.0, 0.0, 0
0, 0, 0.0, 0.0, 0.0, 0.0, 0.0, 0.0, 0.0, 0
0, 0, 0.0, 0.0, 0.0, 0.0, 0.0, 0.0, 0.0, 0
0, 0, 0.0, 0.0, 0.0, 0.0, 0.0, 0.0, 0.0, 0
0, 0, 0.0, 0.0, 0.0, 0.0, 0.0, 0.0, 0.0, 0
0, 0, 0.0, 0.0, 0.0, 0.0, 0.0, 0.0, 0.0, 0
0, 0, 0.0, 0.0, 0.0, 0.0, 0.0, 0.0, 0.0, 0
0, 0, 0.0, 0.0, 0.0, 0.0, 0.0, 0.0, 0.0, 0
0, 0, 0.0, 0.0, 0.0, 0.0, 0.0, 0.0, 0.0, 0
0, 0, 0.0, 0.0, 0.0, 0.0, 0.0, 0.0, 0.0, 0
0, 0, 0.0, 0.0, 0.0, 0.0, 0.0, 0.0, 0.0, 0
0, 0, 0.0, 0.0, 0.0, 0.0, 0.0, 0.0, 0.0, 0
0, 0, 0.0, 0.0, 0.0, 0.0, 0.0, 0.0, 0.0, 0
0, 0, 0.0, 0.0, 0.0, 0.0, 0.0, 0.0, 0.0, 0
0, 0, 0.0, 0.0, 0.0, 0.0, 0.0, 0.0, 0.0, 0
0, 0, 0.0, 0.0, 0.0, 0.0, 0.0, 0.0, 0.0, 0
0, 0, 0.0, 0.0, 0.0, 0.0, 0.0, 0.0, 0.0, 0
0, 0, 0.0, 0.0, 0.0, 0.0, 0.0, 0.0, 0.0, 0
0, 0, 0.0, 0.0, 0.0, 0.0, 0.0, 0.0, 0.0, 0
0, 0, 0.0, 0.0, 0.0, 0.0, 0.0, 0.0, 0.0, 0
0, 0, 0.0, 0.0, 0.0, 0.0, 0.0, 0.0, 0.0, 0
0, 0, 0.0, 0.0, 0.0, 0.0, 0.0, 0.0, 0.0, 0
0, 0, 0.0, 0.0, 0.0, 0.0, 0.0, 0.0, 0.0, 0
0, 0, 0.0, 0.0, 0.0, 0.0, 0.0, 0.0, 0.0, 0
0, 0, 0.0, 0.0, 0.0, 0.0, 0.0, 0.0, 0.0, 0
0, 0, 0.0, 0.0, 0.0, 0.0, 0.0, 0.0, 0.0, 0
0, 0, 0.0, 0.0, 0.0, 0.0, 0.0, 0.0, 0.0, 0
0, 0, 0.0, 0.0, 0.0, 0.0, 0.0, 0.0, 0.0, 0
0, 0, 0.0, 0.0, 0.0, 0.0, 0.0, 0.0, 0.0, 0
0, 0, 0.0, 0.0, 0.0, 0.0, 0.0, 0.0, 0.0, 0
0, 0, 0.0, 0.0, 0.0, 0.0, 0.0, 0.0, 0.0, 0
0, 0, 0.0, 0.0, 0.0, 0.0, 0.0, 0.0, 0.0, 0
2048, 3145728, 0, 0, -2147483648, 0, 0, 1610612736, 128, 1
0, 0, 0.0, 0.0, 0.0, 0.0, 0.0, 0.0, 0.0, 0
0, 0, 0.0, 0.0, 0.0, 0.0, 0.0, 0.0, 0.0, 0
0, 0, 0.0, 0.0, 0.0, 0.0, 0.0, 0.0, 0.0, 0
0, 0, 0.0, 0.0, 0.0, 0.0, 0.0, 0.0, 0.0, 0
0, 0, 0.0, 0.0, 0.0, 0.0, 0.0, 0.0, 0.0, 0
0, 0, 0.0, 0.0, 0.0, 0.0, 0.0, 0.0, 0.0, 0
0, 0, 0.0, 0.0, 0.0, 0.0, 0.0, 0.0, 0.0, 0
0, 0, 0.0, 0.0, 0.0, 0.0, 0.0, 0.0, 0.0, 0
0, 0, 0.0, 0.0, 0.0, 0.0, 0.0, 0.0, 0.0, 0
0, 0, 0.0, 0.0, 0.0, 0.0, 0.0, 0.0, 0.0, 0
0, 0, 0.0, 0.0, 0.0, 0.0, 0.0, 0.0, 0.0, 0
0, 0, 0.0, 0.0, 0.0, 0.0, 0.0, 0.0, 0.0, 0
0, 0, 0.0, 0.0, 0.0, 0.0, 0.0, 0.0, 0.0, 0
0, 0, 0.0, 0.0, 0.0, 0.0, 0.0, 0.0, 0.0, 0
0, 0, 0.0, 0.0, 0.0, 0.0, 0.0, 0.0, 0.0, 0
0, 0, 0.0, 0.0, 0.0, 0.0, 0.0, 0.0, 0.0, 0
0, 0, 0.0, 0.0, 0.0, 0.0, 0.0, 0.0, 0.0, 0
0, 0, 0.0, 0.0, 0.0, 0.0, 0.0, 0.0, 0.0, 0
0, 0, 0.0, 0.0, 0.0, 0.0, 0.0, 0.0, 0.0, 0
0, 0, 0.0, 0.0, 0.0, 0.0, 0.0, 0.0, 0.0, 0
0, 0, 0.0, 0.0, 0.0, 0.0, 0.0, 0.0, 0.0, 0
0, 0, 0.0, 0.0, 0.0, 0.0, 0.0, 0.0, 0.0, 0
0, 0, 0.0, 0.0, 0.0, 0.0, 0.0, 0.0, 0.0, 0
0, 0, 0.0, 0.0, 0.0, 0.0, 0.0, 0.0, 0.0, 0
0, 0, 0.0, 0.0, 0.0, 0.0, 0.0, 0.0, 0.0, 0
0, 0, 0.0, 0.0, 0.0, 0.0, 0.0, 0.0, 0.0, 0
0, 0, 0.0, 0.0, 0.0, 0.0, 0.0, 0.0, 0.0, 0
0, 0, 0.0, 0.0, 0.0, 0.0, 0.0, 0.0, 0.0, 0
0, 0, 0.0, 0.0, 0.0, 0.0, 0.0, 0.0, 0.0, 0
0, 0, 0.0, 0.0, 0.0, 0.0, 0.0, 0.0, 0.0, 0
0, 0, 0.0, 0.0, 0.0, 0.0, 0.0, 0.0, 0.0, 0
0, 0, 0.0, 0.0, 0.0, 0.0, 0.0, 0.0, 0.0, 0
0, 0, 0.0, 0.0, 0.0, 0.0, 0.0, 0.0, 0.0, 0
0, 0, 0.0, 0.0, 0.0, 0.0, 0.0, 0.0, 0.0, 0
0, 0, 0.0, 0.0, 0.0, 0.0, 0.0, 0.0, 0.0, 0
0, 0, 0.0, 0.0, 0.0, 0.0, 0.0, 0.0, 0.0, 0
0, 0, 0.0, 0.0, 0.0, 0.0, 0.0, 0.0, 0.0, 0
0, 0, 0.0, 0.0, 0.0, 0.0, 0.0, 0.0, 0.0, 0
0, 0, 0.0, 0.0, 0.0, 0.0, 0.0, 0.0, 0.0, 0
0, 0, 0.0, 0.0, 0.0, 0.0, 0.0, 0.0, 0.0, 0
0, 0, 0.0, 0.0, 0.0, 0.0, 0.0, 0.0, 0.0, 0
0, 0, 0.0, 0.0, 0.0, 0.0, 0.0, 0.0, 0.0, 0
0, 0, 0.0, 0.0, 0.0, 0.0, 0.0, 0.0, 0.0, 0
0, 0, 0.0, 0.0, 0.0, 0.0, 0.0, 0.0, 0.0, 0
0, 0, 0.0, 0.0, 0.0, 0.0, 0.0, 0.0, 0.0, 0
0, 0, 0.0, 0.0, 0.0, 0.0, 0.0, 0.0, 0.0, 0
0, 0, 0.0, 0.0, 0.0, 0.0, 0.0, 0.0, 0.0, 0
0, 0, 0.0, 0.0, 0.0, 0.0, 0.0, 0.0, 0.0, 0
0, 0, 0.0, 0.0, 0.0, 0.0, 0.0, 0.0, 0.0, 0
0, 0, 0.0, 0.0, 0.0, 0.0, 0.0, 0.0, 0.0, 0
0, 0, 0.0, 0.0, 0.0, 0.0, 0.0, 0.0, 0.0, 0
0, 0, 0.0, 0.0, 0.0, 0.0, 0.0, 0.0, 0.0, 0
0, 0, 0.0, 0.0, 0.0, 0.0, 0.0, 0.0, 0.0, 0
0, 0, 0.0, 0.0, 0.0, 0.0, 0.0, 0.0, 0.0, 0
0, 0, 0.0, 0.0, 0.0, 0.0, 0.0, 0.0, 0.0, 0
0, 0, 0.0, 0.0, 0.0, 0.0, 0.0, 0.0, 0.0, 0
0, 0, 0.0, 0.0, 0.0, 0.0, 0.0, 0.0, 0.0, 0
0, 0, 0.0, 0.0, 0.0, 0.0, 0.0, 0.0, 0.0, 0
0, 0, 0.0, 0.0, 0.0, 0.0, 0.0, 0.0, 0.0, 0
0, 0, 0.0, 0.0, 0.0, 0.0, 0.0, 0.0, 0.0, 0
0, 0, 0.0, 0.0, 0.0, 0.0, 0.0, 0.0, 0.0, 0
0, 0, 0.0, 0.0, 0.0, 0.0, 0.0, 0.0, 0.0, 0
0, 0, 0.0, 0.0, 0.0, 0.0, 0.0, 0.0, 0.0, 0
0, 0, 0.0, 0.0, 0.0, 0.0, 0.0, 0.0, 0.0, 0
0, 0, 0.0, 0.0, 0.0, 0.0, 0.0, 0.0, 0.0, 0
0, 0, 0.0, 0.0, 0.0, 0.0, 0.0, 0.0, 0.0, 0
0, 0, 0.0, 0.0, 0.0, 0.0, 0.0, 0.0, 0.0, 0
0, 0, 0.0, 0.0, 0.0, 0.0, 0.0, 0.0, 0.0, 0
0, 0, 0.0, 0.0, 0.0, 0.0, 0.0, 0.0, 0.0, 0
0, 0, 0.0, 0.0, 0.0, 0.0, 0.0, 0.0, 0.0, 0
3476, 3476577, -0.59, -0.01, -0.01, 0.03, 0.03, 0.03, 27.91, 0
3800, 3800567, -0.57, -0.01, -0.01, 0.0, 0.0, 0.0, 27.96, 0
3800, 3800567, -0.57, -0.01, -0.01, 0.0, 0.0, 0.0, 27.96, 0
4366, 4366574, -0.63, -0.01, -0.01, -0.17, -0.17, -0.17, 27.91, 0
4366, 4366574, -0.63, -0.01, -0.01, -0.17, -0.17, -0.17, 27.91, 0
4923, 4923576, -0.49, -0.0, -0.0, -0.13, -0.13, -0.13, 28.01, 0
4923, 4923576, -0.49, -0.0, -0.0, -0.13, -0.13, -0.13, 28.01, 0
4923, 4923576, -0.49, -0.0, -0.0, -0.13, -0.13, -0.13, 28.01, 0
0, 0, 0.0, 0.0, 0.0, 0.0, 0.0, 0.0, 0.0, 0
5910, 5910573, -0.55, -0.01, -0.01, -0.18, -0.18, -0.18, 27.87, 0
6107, 6107568, -0.52, -0.01, -0.01, -0.19, -0.19, -0.19, 27.91, 0
6322, 6322568, -0.51, -0.01, -0.01, -0.22, -0.22, -0.22, 27.91, 0
6464, 6464574, -0.54, -0.01, -0.01, -0.2, -0.2, -0.2, 27.96, 0
6757, 6757568, -0.54, -0.01, -0.01, -0.16, -0.16, -0.16, 27.91, 0
6898, 6898572, -0.54, -0.01, -0.01, -0.23, -0.23, -0.23, 28.01, 0
7109, 7109572, -0.6, -0.01, -0.01, -0.17, -0.17, -0.17, 27.91, 0
7323, 7323566, -0.54, -0.01, -0.01, -0.29, -0.29, -0.29, 27.96, 0
7536, 7536494, -0.6, -0.01, -0.01, -0.17, -0.17, -0.17, 27.96, 0
7830, 7830568, -54, 977, -626, -53, -97, -219, 2791, 1
7967, 7967572, -0.53, -0.01, -0.01, -0.11, -0.11, -0.11, 27.91, 0
8183, 8183572, -0.59, -0.01, -0.01, -0.27, -0.27, -0.27, 28.01, 0
8393, 8393567, -0.56, -0.01, -0.01, -0.15, -0.15, -0.15, 28.05, 0
8613, 8613572, -0.6, -0.01, -0.01, -0.19, -0.19, -0.19, 27.96, 0
8903, 8903568, -0.55, -0.01, -0.01, -0.22, -0.22, -0.22, 27.96, 0
9041, 9041572, -0.56, -0.01, -0.01, -0.16, -0.16, -0.16, 28.1, 0
9254, 9254572, -0.59, -0.01, -0.01, -0.23, -0.23, -0.23, 28.01, 0
9469, 9469572, -0.55, -0.01, -0.01, -0.2, -0.2, -0.2, 27.91, 0
9759, 9759568, -0.61, -0.01, -0.01, -0.2, -0.2, -0.2, 27.87, 0
9899, 9899573, -0.5, -0.01, -0.01, -0.2, -0.2, -0.2, 28.01, 0
10114, 10114573, -0.57, -0.01, -0.01, -0.25, -0.25, -0.25, 27.96, 0
10328, 10328573, -0.6, -0.01, -0.01, -0.23, -0.23, -0.23, 28.01, 0
10619, 10619568, -0.58, -0.01, -0.01, -0.25, -0.25, -0.25, 28.01, 0
10758, 10758573, -0.5, -0.01, -0.01, -0.19, -0.19, -0.19, 27.96, 0
10968, 10968567, -0.59, -0.01, -0.01, -0.18, -0.18, -0.18, 28.01, 0
11183, 11183572, -0.6, -0.01, -0.01, -0.2, -0.2, -0.2, 28.01, 0
11398, 11398566, -0.53, -0.01, -0.01, -0.25, -0.25, -0.25, 28.05, 0
11610, 11610567, -0.56, -0.01, -0.01, -0.19, -0.19, -0.19, 28.05, 0
11899, 11899568, -0.63, -0.01, -0.01, -0.22, -0.22, -0.22, 27.96, 0
12040, 12040572, -0.57, -0.01, -0.01, -0.27, -0.27, -0.27, 27.96, 0
12331, 12331568, -0.53, -0.01, -0.01, -0.2, -0.2, -0.2, 27.96, 0
12471, 12471575, -0.55, -0.01, -0.01, -0.16, -0.16, -0.16, 28.01, 0
12765, 12765568, -0.58, -0.01, -0.01, -0.26, -0.26, -0.26, 28.01, 0
12902, 12902573, -0.51, -0.01, -0.01, -0.14, -0.14, -0.14, 27.96, 0
13116, 13116574, -0.55, -0.01, -0.01, -0.25, -0.25, -0.25, 28.01, 0
13330, 13330573, -0.52, -0.01, -0.01, -0.22, -0.22, -0.22, 28.01, 0
13540, 13540572, -0.54, -0.01, -0.01, -0.23, -0.23, -0.23, 27.91, 0
13837, 13837568, -0.55, -0.01, -0.01, -0.24, -0.24, -0.24, 27.96, 0
13978, 13978572, -0.5, -0.01, -0.01, -0.24, -0.24, -0.24, 28.1, 0
14188, 14188572, -0.53, -0.01, -0.01, -0.21, -0.21, -0.21, 28.01, 0
14403, 14403566, -0.57, -0.01, -0.01, -0.23, -0.23, -0.23, 28.01, 0
14619, 14619573, -0.56, -0.01, -0.01, -0.23, -0.23, -0.23, 28.05, 0
14905, 14905568, -0.61, -0.01, -0.01, -0.22, -0.22, -0.22, 27.91, 0
15046, 15046572, -0.51, -0.01, -0.01, -0.23, -0.23, -0.23, 27.96, 0
15262, 15262572, -0.51, -0.01, -0.01, -0.24, -0.24, -0.24, 28.1, 0
15549, 15549568, -0.53, -0.01, -0.01, -0.25, -0.25, -0.25, 27.96, 0
15694, 15694572, -0.53, -0.01, -0.01, -0.24, -0.24, -0.24, 27.96, 0
15906, 15906572, -0.54, -0.01, -0.01, -0.25, -0.25, -0.25, 28.05, 0
16117, 16117572, -0.54, -0.01, -0.01, -0.1, -0.1, -0.1, 28.05, 0
16331, 16331573, -0.58, -0.01, -0.01, -0.21, -0.21, -0.21, 27.96, 0
16544, 16544475, -0.61, -0.01, -0.01, -0.29, -0.29, -0.29, 28.05, 0
16833, 16833568, -0.56, -0.01, -0.01, -0.25, -0.25, -0.25, 28.01, 0
16973, 16973572, -0.51, -0.01, -0.01, -0.26, -0.26, -0.26, 28.15, 0
17189, 17189573, -0.56, -0.01, -0.01, -0.24, -0.24, -0.24, 28.01, 0
17402, 17402572, -0.55, -0.01, -0.01, -0.23, -0.23, -0.23, 28.01, 0
17618, 17618572, -0.59, -0.01, -0.01, -0.23, -0.23, -0.23, 28.01, 0
17907, 17907568, -0.59, -0.01, -0.01, -0.22, -0.22, -0.22, 28.01, 0
18045, 18045567, -0.6, -0.01, -0.01, -0.25, -0.25, -0.25, 28.05, 0
18259, 18259566, -0.62, -0.01, -0.01, -0.19, -0.19, -0.19, 28.05, 0
18473, 18473567, -0.62, -0.01, -0.01, -0.29, -0.29, -0.29, 28.05, 0
18687, 18687576, -0.59, -0.01, -0.01, -0.27, -0.27, -0.27, 28.05, 0
18960, 18960568, -0.61, -0.01, -0.01, -0.27, -0.27, -0.27, 28.1, 0
19177, 19177568, -0.54, -0.01, -0.01, -0.23, -0.23, -0.23, 28.1, 0
19321, 19321573, -0.62, -0.01, -0.01, -0.26, -0.26, -0.26, 28.05, 0
19609, 19609568, -0.57, -0.01, -0.01, -0.25, -0.25, -0.25, 28.05, 0
19753, 19753575, -0.61, -0.01, -0.01, -0.26, -0.26, -0.26, 28.01, 0
19966, 19966574, -0.51, -0.01, -0.01, -0.21, -0.21, -0.21, 28.05, 0
20177, 20177574, -0.58, -0.01, -0.01, -0.27, -0.27, -0.27, 28.05, 0
20391, 20391574, -0.54, -0.01, -0.01, -0.3, -0.3, -0.3, 28.15, 0
20610, 20610574, -0.6, -0.01, -0.01, -0.27, -0.27, -0.27, 28.05, 0
20896, 20896568, -0.59, -0.01, -0.01, -0.24, -0.24, -0.24, 28.05, 0
21039, 21039573, -0.59, -0.01, -0.01, -0.29, -0.29, -0.29, 28.15, 0
21252, 21252572, -0.53, -0.01, -0.01, -0.27, -0.27, -0.27, 28.15, 0
21463, 21463576, -0.6, -0.01, -0.01, -0.25, -0.25, -0.25, 28.15, 0
21755, 21755568, -0.51, -0.01, -0.01, -0.18, -0.18, -0.18, 28.15, 0
21896, 21896572, -0.52, -0.01, -0.01, -0.25, -0.25, -0.25, 28.1, 0
22109, 22109566, -0.57, -0.01, -0.01, -0.17, -0.17, -0.17, 28.15, 0
22398, 22398568, -0.56, -0.01, -0.01, -0.29, -0.29, -0.29, 28.01, 0
22538, 22538575, -0.63, -0.01, -0.01, -0.27, -0.27, -0.27, 28.2, 0
22751, 22751572, -0.53, -0.01, -0.01, -0.3, -0.3, -0.3, 28.1, 0
23042, 23042568, -0.47, -0.0, -0.0, -0.25, -0.25, -0.25, 28.1, 0
23183, 23183576, -0.59, -0.01, -0.01, -0.28, -0.28, -0.28, 28.05, 0
23394, 23394566, -0.55, -0.01, -0.01, -0.22, -0.22, -0.22, 28.15, 0
23610, 23610572, -0.5, -0.01, -0.01, -0.18, -0.18, -0.18, 28.05, 0
23900, 23900568, -0.53, -0.01, -0.01, -0.19, -0.19, -0.19, 28.24, 0
24037, 24037577, -0.52, -0.01, -0.01, -0.24, -0.24, -0.24, 28.2, 0
24328, 24328568, -0.59, -0.01, -0.01, -0.24, -0.24, -0.24, 28.2, 0
24469, 24469574, -0.59, -0.01, -0.01, -0.21, -0.21, -0.21, 28.2, 0
24767, 24767568, -0.54, -0.01, -0.01, -0.16, -0.16, -0.16, 28.15, 0
24905, 24905572, -0.56, -0.01, -0.01, -0.13, -0.13, -0.13, 28.24, 0
25120, 25120567, -0.58, -0.01, -0.01, -0.28, -0.28, -0.28, 28.2, 0
25332, 25332573, -0.57, -0.01, -0.01, -0.25, -0.25, -0.25, 28.2, 0
25625, 25625568, -0.55, -0.01, -0.01, -0.28, -0.28, -0.28, 28.2, 0
25766, 25766575, -0.56, -0.01, -0.01, -0.24, -0.24, -0.24, 28.24, 0
25976, 25976566, -0.65, -0.01, -0.01, -0.24, -0.24, -0.24, 28.2, 0
26268, 26268568, -0.46, -0.0, -0.0, -0.19, -0.19, -0.19, 28.2, 0
26478, 26478568, -0.33, -0.0, -0.0, -0.19, -0.19, -0.19, 28.2, 0
26617, 26617567, -0.46, -0.0, -0.0, -0.16, -0.16, -0.16, 28.15, 0
0, 0, 0.0, 0.0, 0.0, 0.0, 0.0, 0.0, 0.0, 0
0, 0, 0.0, 0.0, 0.0, 0.0, 0.0, 0.0, 0.0, 0
0, 0, 0.0, 0.0, 0.0, 0.0, 0.0, 0.0, 0.0, 0
0, 0, 0.0, 0.0, 0.0, 0.0, 0.0, 0.0, 0.0, 0
0, 0, 0.0, 0.0, 0.0, 0.0, 0.0, 0.0, 0.0, 0
0, 0, 0.0, 0.0, 0.0, 0.0, 0.0, 0.0, 0.0, 0
0, 0, 0.0, 0.0, 0.0, 0.0, 0.0, 0.0, 0.0, 0
0, 0, 0.0, 0.0, 0.0, 0.0, 0.0, 0.0, 0.0, 0
0, 0, 0.0, 0.0, 0.0, 0.0, 0.0, 0.0, 0.0, 0
0, 0, 0.0, 0.0, 0.0, 0.0, 0.0, 0.0, 0.0, 0
0, 0, 0.0, 0.0, 0.0, 0.0, 0.0, 0.0, 0.0, 0
0, 0, 0.0, 0.0, 0.0, 0.0, 0.0, 0.0, 0.0, 0
0, 0, 0.0, 0.0, 0.0, 0.0, 0.0, 0.0, 0.0, 0
0, 0, 0.0, 0.0, 0.0, 0.0, 0.0, 0.0, 0.0, 0
0, 0, 0.0, 0.0, 0.0, 0.0, 0.0, 0.0, 0.0, 0
0, 0, 0.0, 0.0, 0.0, 0.0, 0.0, 0.0, 0.0, 0
0, 0, 0.0, 0.0, 0.0, 0.0, 0.0, 0.0, 0.0, 0
0, 0, 0.0, 0.0, 0.0, 0.0, 0.0, 0.0, 0.0, 0
0, 0, 0.0, 0.0, 0.0, 0.0, 0.0, 0.0, 0.0, 0
0, 0, 0.0, 0.0, 0.0, 0.0, 0.0, 0.0, 0.0, 0
0, 0, 0.0, 0.0, 0.0, 0.0, 0.0, 0.0, 0.0, 0
0, 0, 0.0, 0.0, 0.0, 0.0, 0.0, 0.0, 0.0, 0
0, 0, 0.0, 0.0, 0.0, 0.0, 0.0, 0.0, 0.0, 0
0, 0, 0.0, 0.0, 0.0, 0.0, 0.0, 0.0, 0.0, 0
0, 0, 0.0, 0.0, 0.0, 0.0, 0.0, 0.0, 0.0, 0
0, 0, 0.0, 0.0, 0.0, 0.0, 0.0, 0.0, 0.0, 0
0, 0, 0.0, 0.0, 0.0, 0.0, 0.0, 0.0, 0.0, 0
0, 0, 0.0, 0.0, 0.0, 0.0, 0.0, 0.0, 0.0, 0
0, 0, 0.0, 0.0, 0.0, 0.0, 0.0, 0.0, 0.0, 0
0, 0, 0.0, 0.0, 0.0, 0.0, 0.0, 0.0, 0.0, 0
0, 0, 0.0, 0.0, 0.0, 0.0, 0.0, 0.0, 0.0, 0
0, 0, 0.0, 0.0, 0.0, 0.0, 0.0, 0.0, 0.0, 0
0, 0, 0.0, 0.0, 0.0, 0.0, 0.0, 0.0, 0.0, 0
0, 0, 0.0, 0.0, 0.0, 0.0, 0.0, 0.0, 0.0, 0
0, 0, 0.0, 0.0, 0.0, 0.0, 0.0, 0.0, 0.0, 0
0, 0, 0.0, 0.0, 0.0, 0.0, 0.0, 0.0, 0.0, 0
0, 0, 0.0, 0.0, 0.0, 0.0, 0.0, 0.0, 0.0, 0
0, 0, 0.0, 0.0, 0.0, 0.0, 0.0, 0.0, 0.0, 0
0, 0, 0.0, 0.0, 0.0, 0.0, 0.0, 0.0, 0.0, 0
0, 0, 0.0, 0.0, 0.0, 0.0, 0.0, 0.0, 0.0, 0
0, 0, 0.0, 0.0, 0.0, 0.0, 0.0, 0.0, 0.0, 0
9024, 9024578, -0.54, -0.01, -0.01, -0.25, -0.25, -0.25, 28.01, 0
0, 0, 0.0, 0.0, 0.0, 0.0, 0.0, 0.0, 0.0, 0
0, 0, 0.0, 0.0, 0.0, 0.0, 0.0, 0.0, 0.0, 0
0, 0, 0.0, 0.0, 0.0, 0.0, 0.0, 0.0, 0.0, 0
0, 0, 0.0, 0.0, 0.0, 0.0, 0.0, 0.0, 0.0, 0
0, 0, 0.0, 0.0, 0.0, 0.0, 0.0, 0.0, 0.0, 0
0, 0, 0.0, 0.0, 0.0, 0.0, 0.0, 0.0, 0.0, 0
0, 0, 0.0, 0.0, 0.0, 0.0, 0.0, 0.0, 0.0, 0
0, 0, 0.0, 0.0, 0.0, 0.0, 0.0, 0.0, 0.0, 0
0, 0, 0.0, 0.0, 0.0, 0.0, 0.0, 0.0, 0.0, 0
0, 0, 0.0, 0.0, 0.0, 0.0, 0.0, 0.0, 0.0, 0
0, 0, 0.0, 0.0, 0.0, 0.0, 0.0, 0.0, 0.0, 0
0, 0, 0.0, 0.0, 0.0, 0.0, 0.0, 0.0, 0.0, 0
0, 0, 0.0, 0.0, 0.0, 0.0, 0.0, 0.0, 0.0, 0
0, 0, 0.0, 0.0, 0.0, 0.0, 0.0, 0.0, 0.0, 0
0, 0, 0.0, 0.0, 0.0, 0.0, 0.0, 0.0, 0.0, 0
0, 0, 0.0, 0.0, 0.0, 0.0, 0.0, 0.0, 0.0, 0
0, 0, 0.0, 0.0, 0.0, 0.0, 0.0, 0.0, 0.0, 0
0, 0, 0.0, 0.0, 0.0, 0.0, 0.0, 0.0, 0.0, 0
0, 0, 0.0, 0.0, 0.0, 0.0, 0.0, 0.0, 0.0, 0
0, 0, 0.0, 0.0, 0.0, 0.0, 0.0, 0.0, 0.0, 0
0, 0, 0.0, 0.0, 0.0, 0.0, 0.0, 0.0, 0.0, 0
0, 0, 0.0, 0.0, 0.0, 0.0, 0.0, 0.0, 0.0, 0
0, 0, 0.0, 0.0, 0.0, 0.0, 0.0, 0.0, 0.0, 0
0, 0, 0.0, 0.0, 0.0, 0.0, 0.0, 0.0, 0.0, 0
0, 0, 0.0, 0.0, 0.0, 0.0, 0.0, 0.0, 0.0, 0
0, 0, 0.0, 0.0, 0.0, 0.0, 0.0, 0.0, 0.0, 0
0, 0, 0.0, 0.0, 0.0, 0.0, 0.0, 0.0, 0.0, 0
0, 0, 0.0, 0.0, 0.0, 0.0, 0.0, 0.0, 0.0, 0
0, 0, 0.0, 0.0, 0.0, 0.0, 0.0, 0.0, 0.0, 0
0, 0, 0.0, 0.0, 0.0, 0.0, 0.0, 0.0, 0.0, 0
0, 0, 0.0, 0.0, 0.0, 0.0, 0.0, 0.0, 0.0, 0
0, 0, 0.0, 0.0, 0.0, 0.0, 0.0, 0.0, 0.0, 0
0, 0, 0.0, 0.0, 0.0, 0.0, 0.0, 0.0, 0.0, 0
0, 0, 0.0, 0.0, 0.0, 0.0, 0.0, 0.0, 0.0, 0
0, 0, 0.0, 0.0, 0.0, 0.0, 0.0, 0.0, 0.0, 0
0, 0, 0.0, 0.0, 0.0, 0.0, 0.0, 0.0, 0.0, 0
0, 0, 0.0, 0.0, 0.0, 0.0, 0.0, 0.0, 0.0, 0
0, 0, 0.0, 0.0, 0.0, 0.0, 0.0, 0.0, 0.0, 0
0, 0, 0.0, 0.0, 0.0, 0.0, 0.0, 0.0, 0.0, 0
0, 0, 0.0, 0.0, 0.0, 0.0, 0.0, 0.0, 0.0, 0
0, 0, 0.0, 0.0, 0.0, 0.0, 0.0, 0.0, 0.0, 0
0, 0, 0.0, 0.0, 0.0, 0.0, 0.0, 0.0, 0.0, 0
0, 0, 0.0, 0.0, 0.0, 0.0, 0.0, 0.0, 0.0, 0
0, 0, 0.0, 0.0, 0.0, 0.0, 0.0, 0.0, 0.0, 0
0, 0, 0.0, 0.0, 0.0, 0.0, 0.0, 0.0, 0.0, 0
0, 0, 0.0, 0.0, 0.0, 0.0, 0.0, 0.0, 0.0, 0
0, 0, 0.0, 0.0, 0.0, 0.0, 0.0, 0.0, 0.0, 0
0, 0, 0.0, 0.0, 0.0, 0.0, 0.0, 0.0, 0.0, 0
0, 0, 0.0, 0.0, 0.0, 0.0, 0.0, 0.0, 0.0, 0
0, 0, 0.0, 0.0, 0.0, 0.0, 0.0, 0.0, 0.0, 0
0, 0, 0.0, 0.0, 0.0, 0.0, 0.0, 0.0, 0.0, 0
0, 0, 0.0, 0.0, 0.0, 0.0, 0.0, 0.0, 0.0, 0
0, 0, 0.0, 0.0, 0.0, 0.0, 0.0, 0.0, 0.0, 0
0, 0, 0.0, 0.0, 0.0, 0.0, 0.0, 0.0, 0.0, 0
0, 0, 0.0, 0.0, 0.0, 0.0, 0.0, 0.0, 0.0, 0
0, 0, 0.0, 0.0, 0.0, 0.0, 0.0, 0.0, 0.0, 0
0, 0, 0.0, 0.0, 0.0, 0.0, 0.0, 0.0, 0.0, 0
0, 0, 0.0, 0.0, 0.0, 0.0, 0.0, 0.0, 0.0, 0
0, 0, 0.0, 0.0, 0.0, 0.0, 0.0, 0.0, 0.0, 0
0, 0, 0.0, 0.0, 0.0, 0.0, 0.0, 0.0, 0.0, 0
0, 0, 0.0, 0.0, 0.0, 0.0, 0.0, 0.0, 0.0, 0
0, 0, 0.0, 0.0, 0.0, 0.0, 0.0, 0.0, 0.0, 0
0, 0, 0.0, 0.0, 0.0, 0.0, 0.0, 0.0, 0.0, 0
0, 0, 0.0, 0.0, 0.0, 0.0, 0.0, 0.0, 0.0, 0
0, 0, 0.0, 0.0, 0.0, 0.0, 0.0, 0.0, 0.0, 0
0, 0, 0.0, 0.0, 0.0, 0.0, 0.0, 0.0, 0.0, 0
0, 0, 0.0, 0.0, 0.0, 0.0, 0.0, 0.0, 0.0, 0
0, 0, 0.0, 0.0, 0.0, 0.0, 0.0, 0.0, 0.0, 0
0, 0, 0.0, 0.0, 0.0, 0.0, 0.0, 0.0, 0.0, 0
0, 0, 0.0, 0.0, 0.0, 0.0, 0.0, 0.0, 0.0, 0
0, 0, 0.0, 0.0, 0.0, 0.0, 0.0, 0.0, 0.0, 0
0, 0, 0.0, 0.0, 0.0, 0.0, 0.0, 0.0, 0.0, 0
0, 0, 0.0, 0.0, 0.0, 0.0, 0.0, 0.0, 0.0, 0
0, 0, 0.0, 0.0, 0.0, 0.0, 0.0, 0.0, 0.0, 0
0, 0, 0.0, 0.0, 0.0, 0.0, 0.0, 0.0, 0.0, 0
0, 0, 0.0, 0.0, 0.0, 0.0, 0.0, 0.0, 0.0, 0
0, 0, 0.0, 0.0, 0.0, 0.0, 0.0, 0.0, 0.0, 0
0, 0, 0.0, 0.0, 0.0, 0.0, 0.0, 0.0, 0.0, 0
0, 0, 0.0, 0.0, 0.0, 0.0, 0.0, 0.0, 0.0, 0
0, 0, 0.0, 0.0, 0.0, 0.0, 0.0, 0.0, 0.0, 0
0, 0, 0.0, 0.0, 0.0, 0.0, 0.0, 0.0, 0.0, 0
0, 0, 0.0, 0.0, 0.0, 0.0, 0.0, 0.0, 0.0, 0
0, 0, 0.0, 0.0, 0.0, 0.0, 0.0, 0.0, 0.0, 0
0, 0, 0.0, 0.0, 0.0, 0.0, 0.0, 0.0, 0.0, 0
0, 0, 0.0, 0.0, 0.0, 0.0, 0.0, 0.0, 0.0, 0
0, 0, 0.0, 0.0, 0.0, 0.0, 0.0, 0.0, 0.0, 0
0, 0, 0.0, 0.0, 0.0, 0.0, 0.0, 0.0, 0.0, 0
0, 0, 0.0, 0.0, 0.0, 0.0, 0.0, 0.0, 0.0, 0
0, 0, 0.0, 0.0, 0.0, 0.0, 0.0, 0.0, 0.0, 0
0, 0, 0.0, 0.0, 0.0, 0.0, 0.0, 0.0, 0.0, 0
0, 0, 0.0, 0.0, 0.0, 0.0, 0.0, 0.0, 0.0, 0
0, 0, 0.0, 0.0, 0.0, 0.0, 0.0, 0.0, 0.0, 0
0, 0, 0.0, 0.0, 0.0, 0.0, 0.0, 0.0, 0.0, 0
0, 0, 0.0, 0.0, 0.0, 0.0, 0.0, 0.0, 0.0, 0
0, 0, 0.0, 0.0, 0.0, 0.0, 0.0, 0.0, 0.0, 0
0, 0, 0.0, 0.0, 0.0, 0.0, 0.0, 0.0, 0.0, 0
0, 0, 0.0, 0.0, 0.0, 0.0, 0.0, 0.0, 0.0, 0
0, 0, 0.0, 0.0, 0.0, 0.0, 0.0, 0.0, 0.0, 0
0, 0, 0.0, 0.0, 0.0, 0.0, 0.0, 0.0, 0.0, 0
0, 0, 0.0, 0.0, 0.0, 0.0, 0.0, 0.0, 0.0, 0
0, 0, 0.0, 0.0, 0.0, 0.0, 0.0, 0.0, 0.0, 0
0, 0, 0.0, 0.0, 0.0, 0.0, 0.0, 0.0, 0.0, 0
0, 0, 0.0, 0.0, 0.0, 0.0, 0.0, 0.0, 0.0, 0
0, 0, 0.0, 0.0, 0.0, 0.0, 0.0, 0.0, 0.0, 0
0, 0, 0.0, 0.0, 0.0, 0.0, 0.0, 0.0, 0.0, 0
0, 0, 0.0, 0.0, 0.0, 0.0, 0.0, 0.0, 0.0, 0
0, 0, 0.0, 0.0, 0.0, 0.0, 0.0, 0.0, 0.0, 0
0, 0, 0.0, 0.0, 0.0, 0.0, 0.0, 0.0, 0.0, 0
0, 0, 0.0, 0.0, 0.0, 0.0, 0.0, 0.0, 0.0, 0
0, 0, 0.0, 0.0, 0.0, 0.0, 0.0, 0.0, 0.0, 0
0, 0, 0.0, 0.0, 0.0, 0.0, 0.0, 0.0, 0.0, 0
0, 0, 0.0, 0.0, 0.0, 0.0, 0.0, 0.0, 0.0, 0
0, 0, 0.0, 0.0, 0.0, 0.0, 0.0, 0.0, 0.0, 0
0, 0, 0.0, 0.0, 0.0, 0.0, 0.0, 0.0, 0.0, 0
0, 0, 0.0, 0.0, 0.0, 0.0, 0.0, 0.0, 0.0, 0
0, 0, 0.0, 0.0, 0.0, 0.0, 0.0, 0.0, 0.0, 0
0, 0, 0.0, 0.0, 0.0, 0.0, 0.0, 0.0, 0.0, 0
0, 0, 0.0, 0.0, 0.0, 0.0, 0.0, 0.0, 0.0, 0
0, 0, 0.0, 0.0, 0.0, 0.0, 0.0, 0.0, 0.0, 0
0, 0, 0.0, 0.0, 0.0, 0.0, 0.0, 0.0, 0.0, 0
0, 0, 0.0, 0.0, 0.0, 0.0, 0.0, 0.0, 0.0, 0
0, 0, 0.0, 0.0, 0.0, 0.0, 0.0, 0.0, 0.0, 0
0, 0, 0.0, 0.0, 0.0, 0.0, 0.0, 0.0, 0.0, 0
0, 0, 0.0, 0.0, 0.0, 0.0, 0.0, 0.0, 0.0, 0
0, 0, 0.0, 0.0, 0.0, 0.0, 0.0, 0.0, 0.0, 0
0, 0, 0.0, 0.0, 0.0, 0.0, 0.0, 0.0, 0.0, 0
0, 0, 0.0, 0.0, 0.0, 0.0, 0.0, 0.0, 0.0, 0
0, 0, 0.0, 0.0, 0.0, 0.0, 0.0, 0.0, 0.0, 0
0, 0, 0.0, 0.0, 0.0, 0.0, 0.0, 0.0, 0.0, 0
0, 0, 0.0, 0.0, 0.0, 0.0, 0.0, 0.0, 0.0, 0
0, 0, 0.0, 0.0, 0.0, 0.0, 0.0, 0.0, 0.0, 0
0, 0, 0.0, 0.0, 0.0, 0.0, 0.0, 0.0, 0.0, 0
0, 0, 0.0, 0.0, 0.0, 0.0, 0.0, 0.0, 0.0, 0
0, 0, 0.0, 0.0, 0.0, 0.0, 0.0, 0.0, 0.0, 0
0, 0, 0.0, 0.0, 0.0, 0.0, 0.0, 0.0, 0.0, 0
0, 0, 0.0, 0.0, 0.0, 0.0, 0.0, 0.0, 0.0, 0
0, 0, 0.0, 0.0, 0.0, 0.0, 0.0, 0.0, 0.0, 0
0, 0, 0.0, 0.0, 0.0, 0.0, 0.0, 0.0, 0.0, 0
0, 0, 0.0, 0.0, 0.0, 0.0, 0.0, 0.0, 0.0, 0
0, 0, 0.0, 0.0, 0.0, 0.0, 0.0, 0.0, 0.0, 0
0, 0, 0.0, 0.0, 0.0, 0.0, 0.0, 0.0, 0.0, 0
0, 0, 0.0, 0.0, 0.0, 0.0, 0.0, 0.0, 0.0, 0
0, 0, 0.0, 0.0, 0.0, 0.0, 0.0, 0.0, 0.0, 0
0, 0, 0.0, 0.0, 0.0, 0.0, 0.0, 0.0, 0.0, 0
0, 0, 0.0, 0.0, 0.0, 0.0, 0.0, 0.0, 0.0, 0
0, 0, 0.0, 0.0, 0.0, 0.0, 0.0, 0.0, 0.0, 0
0, 0, 0.0, 0.0, 0.0, 0.0, 0.0, 0.0, 0.0, 0
0, 0, 0.0, 0.0, 0.0, 0.0, 0.0, 0.0, 0.0, 0
0, 0, 0.0, 0.0, 0.0, 0.0, 0.0, 0.0, 0.0, 0
0, 0, 0.0, 0.0, 0.0, 0.0, 0.0, 0.0, 0.0, 0
0, 0, 0.0, 0.0, 0.0, 0.0, 0.0, 0.0, 0.0, 0
0, 0, 0.0, 0.0, 0.0, 0.0, 0.0, 0.0, 0.0, 0
0, 0, 0.0, 0.0, 0.0, 0.0, 0.0, 0.0, 0.0, 0
0, 0, 0.0, 0.0, 0.0, 0.0, 0.0, 0.0, 0.0, 0
0, 0, 0.0, 0.0, 0.0, 0.0, 0.0, 0.0, 0.0, 0
0, 0, 0.0, 0.0, 0.0, 0.0, 0.0, 0.0, 0.0, 0
0, 0, 0.0, 0.0, 0.0, 0.0, 0.0, 0.0, 0.0, 0
0, 0, 0.0, 0.0, 0.0, 0.0, 0.0, 0.0, 0.0, 0
0, 0, 0.0, 0.0, 0.0, 0.0, 0.0, 0.0, 0.0, 0
0, 0, 0.0, 0.0, 0.0, 0.0, 0.0, 0.0, 0.0, 0
0, 0, 0.0, 0.0, 0.0, 0.0, 0.0, 0.0, 0.0, 0
0, 0, 0.0, 0.0, 0.0, 0.0, 0.0, 0.0, 0.0, 0
0, 0, 0.0, 0.0, 0.0, 0.0, 0.0, 0.0, 0.0, 0
0, 0, 0.0, 0.0, 0.0, 0.0, 0.0, 0.0, 0.0, 0
0, 0, 0.0, 0.0, 0.0, 0.0, 0.0, 0.0, 0.0, 0
47154, 47154572, -0.58, -0.01, -0.01, -0.21, -0.21, -0.21, 28.57, 0
0, 0, 0.0, 0.0, 0.0, 0.0, 0.0, 0.0, 0.0, 0
0, 0, 0.0, 0.0, 0.0, 0.0, 0.0, 0.0, 0.0, 0
0, 0, 0.0, 0.0, 0.0, 0.0, 0.0, 0.0, 0.0, 0
0, 0, 0.0, 0.0, 0.0, 0.0, 0.0, 0.0, 0.0, 0
0, 0, 0.0, 0.0, 0.0, 0.0, 0.0, 0.0, 0.0, 0
0, 0, 0.0, 0.0, 0.0, 0.0, 0.0, 0.0, 0.0, 0
0, 0, 0.0, 0.0, 0.0, 0.0, 0.0, 0.0, 0.0, 0
0, 0, 0.0, 0.0, 0.0, 0.0, 0.0, 0.0, 0.0, 0
0, 0, 0.0, 0.0, 0.0, 0.0, 0.0, 0.0, 0.0, 0
0, 0, 0.0, 0.0, 0.0, 0.0, 0.0, 0.0, 0.0, 0
0, 0, 0.0, 0.0, 0.0, 0.0, 0.0, 0.0, 0.0, 0
0, 0, 0.0, 0.0, 0.0, 0.0, 0.0, 0.0, 0.0, 0
0, 0, 0.0, 0.0, 0.0, 0.0, 0.0, 0.0, 0.0, 0
0, 0, 0.0, 0.0, 0.0, 0.0, 0.0, 0.0, 0.0, 0
0, 0, 0.0, 0.0, 0.0, 0.0, 0.0, 0.0, 0.0, 0
0, 0, 0.0, 0.0, 0.0, 0.0, 0.0, 0.0, 0.0, 0
0, 0, 0.0, 0.0, 0.0, 0.0, 0.0, 0.0, 0.0, 0
0, 0, 0.0, 0.0, 0.0, 0.0, 0.0, 0.0, 0.0, 0
0, 0, 0.0, 0.0, 0.0, 0.0, 0.0, 0.0, 0.0, 0
0, 0, 0.0, 0.0, 0.0, 0.0, 0.0, 0.0, 0.0, 0
0, 0, 0.0, 0.0, 0.0, 0.0, 0.0, 0.0, 0.0, 0
0, 0, 0.0, 0.0, 0.0, 0.0, 0.0, 0.0, 0.0, 0
0, 0, 0.0, 0.0, 0.0, 0.0, 0.0, 0.0, 0.0, 0
0, 0, 0.0, 0.0, 0.0, 0.0, 0.0, 0.0, 0.0, 0
0, 0, 0.0, 0.0, 0.0, 0.0, 0.0, 0.0, 0.0, 0
0, 0, 0.0, 0.0, 0.0, 0.0, 0.0, 0.0, 0.0, 0
0, 0, 0.0, 0.0, 0.0, 0.0, 0.0, 0.0, 0.0, 0
0, 0, 0.0, 0.0, 0.0, 0.0, 0.0, 0.0, 0.0, 0
0, 0, 0.0, 0.0, 0.0, 0.0, 0.0, 0.0, 0.0, 0
0, 0, 0.0, 0.0, 0.0, 0.0, 0.0, 0.0, 0.0, 0
0, 0, 0.0, 0.0, 0.0, 0.0, 0.0, 0.0, 0.0, 0
0, 0, 0.0, 0.0, 0.0, 0.0, 0.0, 0.0, 0.0, 0
0, 0, 0.0, 0.0, 0.0, 0.0, 0.0, 0.0, 0.0, 0
0, 0, 0.0, 0.0, 0.0, 0.0, 0.0, 0.0, 0.0, 0
0, 0, 0.0, 0.0, 0.0, 0.0, 0.0, 0.0, 0.0, 0
0, 0, 0.0, 0.0, 0.0, 0.0, 0.0, 0.0, 0.0, 0
0, 0, 0.0, 0.0, 0.0, 0.0, 0.0, 0.0, 0.0, 0
0, 0, 0.0, 0.0, 0.0, 0.0, 0.0, 0.0, 0.0, 0
0, 0, 0.0, 0.0, 0.0, 0.0, 0.0, 0.0, 0.0, 0
0, 0, 0.0, 0.0, 0.0, 0.0, 0.0, 0.0, 0.0, 0
0, 0, 0.0, 0.0, 0.0, 0.0, 0.0, 0.0, 0.0, 0
0, 0, 0.0, 0.0, 0.0, 0.0, 0.0, 0.0, 0.0, 0
0, 0, 0.0, 0.0, 0.0, 0.0, 0.0, 0.0, 0.0, 0
0, 0, 0.0, 0.0, 0.0, 0.0, 0.0, 0.0, 0.0, 0
0, 0, 0.0, 0.0, 0.0, 0.0, 0.0, 0.0, 0.0, 0
0, 0, 0.0, 0.0, 0.0, 0.0, 0.0, 0.0, 0.0, 0
0, 0, 0.0, 0.0, 0.0, 0.0, 0.0, 0.0, 0.0, 0
0, 0, 0.0, 0.0, 0.0, 0.0, 0.0, 0.0, 0.0, 0
0, 0, 0.0, 0.0, 0.0, 0.0, 0.0, 0.0, 0.0, 0
0, 0, 0.0, 0.0, 0.0, 0.0, 0.0, 0.0, 0.0, 0
0, 0, 0.0, 0.0, 0.0, 0.0, 0.0, 0.0, 0.0, 0
0, 0, 0.0, 0.0, 0.0, 0.0, 0.0, 0.0, 0.0, 0
0, 0, 0.0, 0.0, 0.0, 0.0, 0.0, 0.0, 0.0, 0
0, 0, 0.0, 0.0, 0.0, 0.0, 0.0, 0.0, 0.0, 0
0, 0, 0.0, 0.0, 0.0, 0.0, 0.0, 0.0, 0.0, 0
0, 0, 0.0, 0.0, 0.0, 0.0, 0.0, 0.0, 0.0, 0
0, 0, 0.0, 0.0, 0.0, 0.0, 0.0, 0.0, 0.0, 0
0, 0, 0.0, 0.0, 0.0, 0.0, 0.0, 0.0, 0.0, 0
0, 0, 0.0, 0.0, 0.0, 0.0, 0.0, 0.0, 0.0, 0
0, 0, 0.0, 0.0, 0.0, 0.0, 0.0, 0.0, 0.0, 0
0, 0, 0.0, 0.0, 0.0, 0.0, 0.0, 0.0, 0.0, 0
0, 0, 0.0, 0.0, 0.0, 0.0, 0.0, 0.0, 0.0, 0
0, 0, 0.0, 0.0, 0.0, 0.0, 0.0, 0.0, 0.0, 0
0, 0, 0.0, 0.0, 0.0, 0.0, 0.0, 0.0, 0.0, 0
0, 0, 0.0, 0.0, 0.0, 0.0, 0.0, 0.0, 0.0, 0
0, 0, 0.0, 0.0, 0.0, 0.0, 0.0, 0.0, 0.0, 0
0, 0, 0.0, 0.0, 0.0, 0.0, 0.0, 0.0, 0.0, 0
0, 0, 0.0, 0.0, 0.0, 0.0, 0.0, 0.0, 0.0, 0
0, 0, 0.0, 0.0, 0.0, 0.0, 0.0, 0.0, 0.0, 0
0, 0, 0.0, 0.0, 0.0, 0.0, 0.0, 0.0, 0.0, 0
0, 0, 0.0, 0.0, 0.0, 0.0, 0.0, 0.0, 0.0, 0
0, 0, 0.0, 0.0, 0.0, 0.0, 0.0, 0.0, 0.0, 0
0, 0, 0.0, 0.0, 0.0, 0.0, 0.0, 0.0, 0.0, 0
0, 0, 0.0, 0.0, 0.0, 0.0, 0.0, 0.0, 0.0, 0
0, 0, 0.0, 0.0, 0.0, 0.0, 0.0, 0.0, 0.0, 0
0, 0, 0.0, 0.0, 0.0, 0.0, 0.0, 0.0, 0.0, 0
0, 0, 0.0, 0.0, 0.0, 0.0, 0.0, 0.0, 0.0, 0
0, 0, 0.0, 0.0, 0.0, 0.0, 0.0, 0.0, 0.0, 0
0, 0, 0.0, 0.0, 0.0, 0.0, 0.0, 0.0, 0.0, 0
0, 0, 0.0, 0.0, 0.0, 0.0, 0.0, 0.0, 0.0, 0
0, 0, 0.0, 0.0, 0.0, 0.0, 0.0, 0.0, 0.0, 0
0, 0, 0.0, 0.0, 0.0, 0.0, 0.0, 0.0, 0.0, 0
0, 0, 0.0, 0.0, 0.0, 0.0, 0.0, 0.0, 0.0, 0
0, 0, 0.0, 0.0, 0.0, 0.0, 0.0, 0.0, 0.0, 0
0, 0, 0.0, 0.0, 0.0, 0.0, 0.0, 0.0, 0.0, 0
0, 0, 0.0, 0.0, 0.0, 0.0, 0.0, 0.0, 0.0, 0
0, 0, 0.0, 0.0, 0.0, 0.0, 0.0, 0.0, 0.0, 0
0, 0, 0.0, 0.0, 0.0, 0.0, 0.0, 0.0, 0.0, 0
0, 0, 0.0, 0.0, 0.0, 0.0, 0.0, 0.0, 0.0, 0
0, 0, 0.0, 0.0, 0.0, 0.0, 0.0, 0.0, 0.0, 0
0, 0, 0.0, 0.0, 0.0, 0.0, 0.0, 0.0, 0.0, 0
0, 0, 0.0, 0.0, 0.0, 0.0, 0.0, 0.0, 0.0, 0
0, 0, 0.0, 0.0, 0.0, 0.0, 0.0, 0.0, 0.0, 0
0, 0, 0.0, 0.0, 0.0, 0.0, 0.0, 0.0, 0.0, 0
0, 0, 0.0, 0.0, 0.0, 0.0, 0.0, 0.0, 0.0, 0
0, 0, 0.0, 0.0, 0.0, 0.0, 0.0, 0.0, 0.0, 0
0, 0, 0.0, 0.0, 0.0, 0.0, 0.0, 0.0, 0.0, 0
0, 0, 0.0, 0.0, 0.0, 0.0, 0.0, 0.0, 0.0, 0
0, 0, 0.0, 0.0, 0.0, 0.0, 0.0, 0.0, 0.0, 0
0, 0, 0.0, 0.0, 0.0, 0.0, 0.0, 0.0, 0.0, 0
0, 0, 0.0, 0.0, 0.0, 0.0, 0.0, 0.0, 0.0, 0
0, 0, 0.0, 0.0, 0.0, 0.0, 0.0, 0.0, 0.0, 0
0, 0, 0.0, 0.0, 0.0, 0.0, 0.0, 0.0, 0.0, 0
0, 0, 0.0, 0.0, 0.0, 0.0, 0.0, 0.0, 0.0, 0
0, 0, 0.0, 0.0, 0.0, 0.0, 0.0, 0.0, 0.0, 0
0, 0, 0.0, 0.0, 0.0, 0.0, 0.0, 0.0, 0.0, 0
0, 0, 0.0, 0.0, 0.0, 0.0, 0.0, 0.0, 0.0, 0
0, 0, 0.0, 0.0, 0.0, 0.0, 0.0, 0.0, 0.0, 0
0, 0, 0.0, 0.0, 0.0, 0.0, 0.0, 0.0, 0.0, 0
0, 0, 0.0, 0.0, 0.0, 0.0, 0.0, 0.0, 0.0, 0
0, 0, 0.0, 0.0, 0.0, 0.0, 0.0, 0.0, 0.0, 0
0, 0, 0.0, 0.0, 0.0, 0.0, 0.0, 0.0, 0.0, 0
0, 0, 0.0, 0.0, 0.0, 0.0, 0.0, 0.0, 0.0, 0
0, 0, 0.0, 0.0, 0.0, 0.0, 0.0, 0.0, 0.0, 0
0, 0, 0.0, 0.0, 0.0, 0.0, 0.0, 0.0, 0.0, 0
0, 0, 0.0, 0.0, 0.0, 0.0, 0.0, 0.0, 0.0, 0
0, 0, 0.0, 0.0, 0.0, 0.0, 0.0, 0.0, 0.0, 0
0, 0, 0.0, 0.0, 0.0, 0.0, 0.0, 0.0, 0.0, 0
0, 0, 0.0, 0.0, 0.0, 0.0, 0.0, 0.0, 0.0, 0
0, 0, 0.0, 0.0, 0.0, 0.0, 0.0, 0.0, 0.0, 0
0, 0, 0.0, 0.0, 0.0, 0.0, 0.0, 0.0, 0.0, 0
0, 0, 0.0, 0.0, 0.0, 0.0, 0.0, 0.0, 0.0, 0
0, 0, 0.0, 0.0, 0.0, 0.0, 0.0, 0.0, 0.0, 0
0, 0, 0.0, 0.0, 0.0, 0.0, 0.0, 0.0, 0.0, 0
0, 0, 0.0, 0.0, 0.0, 0.0, 0.0, 0.0, 0.0, 0
0, 0, 0.0, 0.0, 0.0, 0.0, 0.0, 0.0, 0.0, 0
0, 0, 0.0, 0.0, 0.0, 0.0, 0.0, 0.0, 0.0, 0
0, 0, 0.0, 0.0, 0.0, 0.0, 0.0, 0.0, 0.0, 0
0, 0, 0.0, 0.0, 0.0, 0.0, 0.0, 0.0, 0.0, 0
0, 0, 0.0, 0.0, 0.0, 0.0, 0.0, 0.0, 0.0, 0
0, 0, 0.0, 0.0, 0.0, 0.0, 0.0, 0.0, 0.0, 0
0, 0, 0.0, 0.0, 0.0, 0.0, 0.0, 0.0, 0.0, 0
0, 0, 0.0, 0.0, 0.0, 0.0, 0.0, 0.0, 0.0, 0
0, 0, 0.0, 0.0, 0.0, 0.0, 0.0, 0.0, 0.0, 0
0, 0, 0.0, 0.0, 0.0, 0.0, 0.0, 0.0, 0.0, 0
0, 0, 0.0, 0.0, 0.0, 0.0, 0.0, 0.0, 0.0, 0
0, 0, 0.0, 0.0, 0.0, 0.0, 0.0, 0.0, 0.0, 0
0, 0, 0.0, 0.0, 0.0, 0.0, 0.0, 0.0, 0.0, 0
0, 0, 0.0, 0.0, 0.0, 0.0, 0.0, 0.0, 0.0, 0
0, 0, 0.0, 0.0, 0.0, 0.0, 0.0, 0.0, 0.0, 0
0, 0, 0.0, 0.0, 0.0, 0.0, 0.0, 0.0, 0.0, 0
0, 0, 0.0, 0.0, 0.0, 0.0, 0.0, 0.0, 0.0, 0
0, 0, 0.0, 0.0, 0.0, 0.0, 0.0, 0.0, 0.0, 0
0, 0, 0.0, 0.0, 0.0, 0.0, 0.0, 0.0, 0.0, 0
0, 0, 0.0, 0.0, 0.0, 0.0, 0.0, 0.0, 0.0, 0
0, 0, 0.0, 0.0, 0.0, 0.0, 0.0, 0.0, 0.0, 0
0, 0, 0.0, 0.0, 0.0, 0.0, 0.0, 0.0, 0.0, 0
0, 0, 0.0, 0.0, 0.0, 0.0, 0.0, 0.0, 0.0, 0
0, 0, 0.0, 0.0, 0.0, 0.0, 0.0, 0.0, 0.0, 0
0, 0, 0.0, 0.0, 0.0, 0.0, 0.0, 0.0, 0.0, 0
0, 0, 0.0, 0.0, 0.0, 0.0, 0.0, 0.0, 0.0, 0
0, 0, 0.0, 0.0, 0.0, 0.0, 0.0, 0.0, 0.0, 0
0, 0, 0.0, 0.0, 0.0, 0.0, 0.0, 0.0, 0.0, 0
0, 0, 0.0, 0.0, 0.0, 0.0, 0.0, 0.0, 0.0, 0
0, 0, 0.0, 0.0, 0.0, 0.0, 0.0, 0.0, 0.0, 0
0, 0, 0.0, 0.0, 0.0, 0.0, 0.0, 0.0, 0.0, 0
0, 0, 0.0, 0.0, 0.0, 0.0, 0.0, 0.0, 0.0, 0
0, 0, 0.0, 0.0, 0.0, 0.0, 0.0, 0.0, 0.0, 0
0, 0, 0.0, 0.0, 0.0, 0.0, 0.0, 0.0, 0.0, 0
0, 0, 0.0, 0.0, 0.0, 0.0, 0.0, 0.0, 0.0, 0
0, 0, 0.0, 0.0, 0.0, 0.0, 0.0, 0.0, 0.0, 0
3827, 3827577, -0.52, -0.01, -0.01, -0.23, -0.23, -0.23, 28.53, 0
0, 0, 0.0, 0.0, 0.0, 0.0, 0.0, 0.0, 0.0, 0
4210, 4210580, -0.51, -0.01, -0.01, -0.22, -0.22, -0.22, 28.53, 0
0, 0, 0.0, 0.0, 0.0, 0.0, 0.0, 0.0, 0.0, 0
4652, 4652580, -0.53, -0.01, -0.01, -0.2, -0.2, -0.2, 28.57, 0
0, 0, 0.0, 0.0, 0.0, 0.0, 0.0, 0.0, 0.0, 0
5094, 5094580, -0.49, -0.0, -0.0, -0.26, -0.26, -0.26, 28.62, 0
0, 0, 0.0, 0.0, 0.0, 0.0, 0.0, 0.0, 0.0, 0
5536, 5536580, -0.55, -0.01, -0.01, -0.26, -0.26, -0.26, 28.57, 0
0, 0, 0.0, 0.0, 0.0, 0.0, 0.0, 0.0, 0.0, 0
5978, 5978580, -0.51, -0.01, -0.01, -0.21, -0.21, -0.21, 28.62, 0
0, 0, 0.0, 0.0, 0.0, 0.0, 0.0, 0.0, 0.0, 0
6420, 6420580, -0.51, -0.01, -0.01, -0.23, -0.23, -0.23, 28.62, 0
0, 0, 0.0, 0.0, 0.0, 0.0, 0.0, 0.0, 0.0, 0
6863, 6863580, -0.51, -0.01, -0.01, -0.21, -0.21, -0.21, 28.57, 0
0, 0, 0.0, 0.0, 0.0, 0.0, 0.0, 0.0, 0.0, 0
7304, 7304581, -0.5, -0.01, -0.01, -0.16, -0.16, -0.16, 28.62, 0
0, 0, 0.0, 0.0, 0.0, 0.0, 0.0, 0.0, 0.0, 0
7806, 7806577, -0.54, -0.01, -0.01, -0.09, -0.09, -0.09, 28.67, 0
0, 0, 0.0, 0.0, 0.0, 0.0, 0.0, 0.0, 0.0, 0
8188, 8188581, -0.52, -0.01, -0.01, -0.24, -0.24, -0.24, 28.67, 0
0, 0, 0.0, 0.0, 0.0, 0.0, 0.0, 0.0, 0.0, 0
8630, 8630580, -0.55, -0.01, -0.01, -0.26, -0.26, -0.26, 28.62, 0
0, 0, 0.0, 0.0, 0.0, 0.0, 0.0, 0.0, 0.0, 0
0, 0, 0.0, 0.0, 0.0, 0.0, 0.0, 0.0, 0.0, 0
0, 0, 0.0, 0.0, 0.0, 0.0, 0.0, 0.0, 0.0, 0
0, 0, 0.0, 0.0, 0.0, 0.0, 0.0, 0.0, 0.0, 0
9634, 9634580, -0.53, -0.01, -0.01, -0.11, -0.11, -0.11, 28.71, 0
0, 0, 0.0, 0.0, 0.0, 0.0, 0.0, 0.0, 0.0, 0
10076, 10076580, -0.55, -0.01, -0.01, -0.03, -0.03, -0.03, 28.57, 0
0, 0, 0.0, 0.0, 0.0, 0.0, 0.0, 0.0, 0.0, 0
10518, 10518581, -0.54, -0.01, -0.01, -0.11, -0.11, -0.11, 28.62, 0
0, 0, 0.0, 0.0, 0.0, 0.0, 0.0, 0.0, 0.0, 0
10960, 10960580, -0.5, -0.01, -0.01, -0.18, -0.18, -0.18, 28.62, 0
0, 0, 0.0, 0.0, 0.0, 0.0, 0.0, 0.0, 0.0, 0
11402, 11402580, -0.49, -0.0, -0.0, -0.2, -0.2, -0.2, 28.76, 0
0, 0, 0.0, 0.0, 0.0, 0.0, 0.0, 0.0, 0.0, 0
11842, 11842580, -0.5, -0.01, -0.01, -0.21, -0.21, -0.21, 28.62, 0
0, 0, 0.0, 0.0, 0.0, 0.0, 0.0, 0.0, 0.0, 0
12286, 12286580, -0.52, -0.01, -0.01, -0.21, -0.21, -0.21, 28.67, 0
0, 0, 0.0, 0.0, 0.0, 0.0, 0.0, 0.0, 0.0, 0
12788, 12788893, -0.59, -0.01, -0.01, -0.17, -0.17, -0.17, 28.62, 0
0, 0, 0.0, 0.0, 0.0, 0.0, 0.0, 0.0, 0.0, 0
13173, 13173580, -0.56, -0.01, -0.01, -0.2, -0.2, -0.2, 28.62, 0
0, 0, 0.0, 0.0, 0.0, 0.0, 0.0, 0.0, 0.0, 0
13615, 13615578, -0.53, -0.01, -0.01, -0.2, -0.2, -0.2, 28.67, 0
0, 0, 0.0, 0.0, 0.0, 0.0, 0.0, 0.0, 0.0, 0
14059, 14059580, -0.5, -0.01, -0.01, -0.15, -0.15, -0.15, 28.62, 0
0, 0, 0.0, 0.0, 0.0, 0.0, 0.0, 0.0, 0.0, 0
14501, 14501581, -0.54, -0.01, -0.01, -0.25, -0.25, -0.25, 28.67, 0
0, 0, 0.0, 0.0, 0.0, 0.0, 0.0, 0.0, 0.0, 0
14942, 14942580, -0.5, -0.01, -0.01, -0.15, -0.15, -0.15, 28.67, 0
0, 0, 0.0, 0.0, 0.0, 0.0, 0.0, 0.0, 0.0, 0
15384, 15384580, -0.57, -0.01, -0.01, -0.23, -0.23, -0.23, 28.71, 0
0, 0, 0.0, 0.0, 0.0, 0.0, 0.0, 0.0, 0.0, 0
15823, 15823580, -0.51, -0.01, -0.01, -0.24, -0.24, -0.24, 28.57, 0
0, 0, 0.0, 0.0, 0.0, 0.0, 0.0, 0.0, 0.0, 0
16268, 16268580, -0.54, -0.01, -0.01, -0.24, -0.24, -0.24, 28.62, 0
0, 0, 0.0, 0.0, 0.0, 0.0, 0.0, 0.0, 0.0, 0
16710, 16710581, -0.5, -0.01, -0.01, -0.22, -0.22, -0.22, 28.57, 0
0, 0, 0.0, 0.0, 0.0, 0.0, 0.0, 0.0, 0.0, 0
17153, 17153581, -0.59, -0.01, -0.01, -0.27, -0.27, -0.27, 28.57, 0
0, 0, 0.0, 0.0, 0.0, 0.0, 0.0, 0.0, 0.0, 0
17595, 17595580, -0.52, -0.01, -0.01, -0.11, -0.11, -0.11, 28.71, 0
0, 0, 0.0, 0.0, 0.0, 0.0, 0.0, 0.0, 0.0, 0
18037, 18037579, -0.5, -0.01, -0.01, -0.26, -0.26, -0.26, 28.67, 0
0, 0, 0.0, 0.0, 0.0, 0.0, 0.0, 0.0, 0.0, 0
18479, 18479580, -0.5, -0.01, -0.01, -0.27, -0.27, -0.27, 28.71, 0
0, 0, 0.0, 0.0, 0.0, 0.0, 0.0, 0.0, 0.0, 0
18923, 18923582, -1.5, -0.01, -0.01, -0.24, -0.24, -0.24, 28.62, 0
0, 0, 0.0, 0.0, 0.0, 0.0, 0.0, 0.0, 0.0, 0
19364, 19364577, -0.73, -0.01, -0.01, -0.21, -0.21, -0.21, 28.67, 0
0, 0, 0.0, 0.0, 0.0, 0.0, 0.0, 0.0, 0.0, 0
0, 0, 0.0, 0.0, 0.0, 0.0, 0.0, 0.0, 0.0, 0
0, 0, 0.0, 0.0, 0.0, 0.0, 0.0, 0.0, 0.0, 0
0, 0, 0.0, 0.0, 0.0, 0.0, 0.0, 0.0, 0.0, 0
0, 0, 0.0, 0.0, 0.0, 0.0, 0.0, 0.0, 0.0, 0
0, 0, 0.0, 0.0, 0.0, 0.0, 0.0, 0.0, 0.0, 0
0, 0, 0.0, 0.0, 0.0, 0.0, 0.0, 0.0, 0.0, 0
0, 0, 0.0, 0.0, 0.0, 0.0, 0.0, 0.0, 0.0, 0
0, 0, 0.0, 0.0, 0.0, 0.0, 0.0, 0.0, 0.0, 0
0, 0, 0.0, 0.0, 0.0, 0.0, 0.0, 0.0, 0.0, 0
